"","Trials.thisN","condition","blurr_confirm.rt","Press","Whenpress","Curiosity.response","Confidence.response","Surprise.response","ParticipantID","normal_confidence","normal_curiosity","normal_surprise"
"33",0,1,0.24060873338,1,5,6,3,4,7,-1.69955853603946,1.96276558195864,0.984304514513565
"51",2,1,0.751941331662,1,12,3,9,1,7,0.441409448706982,0.164303906182059,-0.669817180000932
"74",4,1,0.284158392169,1,6,5,3,5,7,-1.69955853603946,1.36327835669978,1.53567841268506
"81",5,1,0.173331990722,1,11,5,5,2,7,-0.985902541123977,1.36327835669978,-0.118443281829433
"93",6,10,0.0873648747802,1,5,3,8,2,7,0.0845814512492421,0.164303906182059,-0.118443281829433
"99",7,1,0.672487532836,1,7,2,9,1,7,0.441409448706982,-0.435183319076804,-0.669817180000932
"116",9,1,0.402839549526,1,2,1,10,1,7,0.798237446164722,-1.03467054433567,-0.669817180000932
"130",11,1,0.507966371835,1,3,5,6,2,7,-0.629074543666237,1.36327835669978,-0.118443281829433
"134",12,1,0.938374708581,1,3,4,6,2,7,-0.629074543666237,0.763791131440921,-0.118443281829433
"138",13,1,0.76927183423,1,4,4,7,6,7,-0.272246546208498,0.763791131440921,2.08705231085656
"143",14,1,0.903118418704,1,10,6,2,5,7,-2.0563865334972,1.96276558195864,1.53567841268506
"154",15,1,0.394975236268,1,5,5,7,5,7,-0.272246546208498,1.36327835669978,1.53567841268506
"160",16,1,0.670201625442,1,2,1,10,1,7,0.798237446164722,-1.03467054433567,-0.669817180000932
"163",17,1,0.235788769496,1,13,4,7,2,7,-0.272246546208498,0.763791131440921,-0.118443281829433
"184",19,1,0.538850526849,1,13,5,4,1,7,-1.34273053858172,1.36327835669978,-0.669817180000932
"211",21,9,0.858088739798,1,8,5,3,6,7,-1.69955853603946,1.36327835669978,2.08705231085656
"220",22,1,0.219883332378,1,8,3,9,1,7,0.441409448706982,0.164303906182059,-0.669817180000932
"235",24,8,0.0212677791715,1,2,1,10,1,7,0.798237446164722,-1.03467054433567,-0.669817180000932
"243",26,1,0.0287095221574,1,10,5,4,2,7,-1.34273053858172,1.36327835669978,-0.118443281829433
"254",27,1,0.367263430613,1,8,4,9,3,7,0.441409448706982,0.763791131440921,0.432930616342066
"263",28,2,0.130284432787,1,2,1,10,1,7,0.798237446164722,-1.03467054433567,-0.669817180000932
"266",29,1,0,0,0,6,7,1,7,-0.272246546208498,1.96276558195864,-0.669817180000932
"282",30,1,0.82868665288,1,13,2,10,1,7,0.798237446164722,-0.435183319076804,-0.669817180000932
"296",31,1,0.633027385164,1,3,1,9,1,7,0.441409448706982,-1.03467054433567,-0.669817180000932
"300",32,1,0.912112203019,1,11,4,7,5,7,-0.272246546208498,0.763791131440921,1.53567841268506
"321",34,1,0.771351917763,1,10,2,9,1,7,0.441409448706982,-0.435183319076804,-0.669817180000932
"332",35,1,0.830710757757,1,11,2,10,1,7,0.798237446164722,-0.435183319076804,-0.669817180000932
"344",36,1,0.493422512314,1,2,1,10,1,7,0.798237446164722,-1.03467054433567,-0.669817180000932
"347",37,1,0.12266144203,1,11,2,9,2,7,0.441409448706982,-0.435183319076804,-0.118443281829433
"371",39,1,0.157576740196,1,15,6,4,1,7,-1.34273053858172,1.96276558195864,-0.669817180000932
"401",41,1,0,0,0,6,1,6,7,-2.41321453095494,1.96276558195864,2.08705231085656
"423",43,1,0.283224163635,1,13,3,6,3,7,-0.629074543666237,0.164303906182059,0.432930616342066
"437",44,1,0.845420846599,1,13,4,7,2,7,-0.272246546208498,0.763791131440921,-0.118443281829433
"457",46,1,0.330681744497,1,10,2,10,1,7,0.798237446164722,-0.435183319076804,-0.669817180000932
"468",47,1,0.0940771890455,1,11,3,8,6,7,0.0845814512492421,0.164303906182059,2.08705231085656
"480",48,1,0.760150049988,1,5,1,10,1,7,0.798237446164722,-1.03467054433567,-0.669817180000932
"486",49,1,0.295064665552,1,12,2,10,1,7,0.798237446164722,-0.435183319076804,-0.669817180000932
"499",50,1,0.0964712990099,1,12,2,9,1,7,0.441409448706982,-0.435183319076804,-0.669817180000932
"553",56,1,0,0,0,6,1,6,7,-2.41321453095494,1.96276558195864,2.08705231085656
"576",58,1,0.563634036342,1,12,1,10,1,7,0.798237446164722,-1.03467054433567,-0.669817180000932
"589",59,7,0.929823974555,1,6,5,7,4,7,-0.272246546208498,1.36327835669978,0.984304514513565
"605",61,1,0.261631776753,1,8,3,9,5,7,0.441409448706982,0.164303906182059,1.53567841268506
"614",62,1,0.363496820442,1,8,4,7,1,7,-0.272246546208498,0.763791131440921,-0.669817180000932
"623",63,1,0.807760889409,1,13,2,9,6,7,0.441409448706982,-0.435183319076804,2.08705231085656
"646",65,1,0.0238400649978,1,13,1,10,1,7,0.798237446164722,-1.03467054433567,-0.669817180000932
"666",67,1,0.247331970255,1,8,4,6,1,7,-0.629074543666237,0.763791131440921,-0.669817180000932
"698",70,1,0.852093907539,1,1,1,10,1,7,0.798237446164722,-1.03467054433567,-0.669817180000932
"700",71,1,0,0,0,6,1,5,7,-2.41321453095494,1.96276558195864,1.53567841268506
"716",72,1,0.0598377302522,1,12,2,10,2,7,0.798237446164722,-0.435183319076804,-0.118443281829433
"729",73,1,0.182334308396,1,15,3,7,2,7,-0.272246546208498,0.164303906182059,-0.118443281829433
"752",75,1,0.745696302329,1,12,5,6,6,7,-0.629074543666237,1.36327835669978,2.08705231085656
"765",76,1,0.681141690759,1,6,3,8,2,7,0.0845814512492421,0.164303906182059,-0.118443281829433
"781",78,1,0.896788056067,1,11,3,8,6,7,0.0845814512492421,0.164303906182059,2.08705231085656
"793",79,1,0.378628114238,1,10,3,9,1,7,0.441409448706982,0.164303906182059,-0.669817180000932
"804",80,1,0,0,0,4,6,2,7,-0.629074543666237,0.763791131440921,-0.118443281829433
"837",83,1,0.431187600072,1,12,2,10,1,7,0.798237446164722,-0.435183319076804,-0.669817180000932
"850",84,1,0.89062665333,1,2,1,10,1,7,0.798237446164722,-1.03467054433567,-0.669817180000932
"853",85,1,0.662453706726,1,10,2,9,1,7,0.441409448706982,-0.435183319076804,-0.669817180000932
"864",86,1,0.271751618769,1,12,3,8,2,7,0.0845814512492421,0.164303906182059,-0.118443281829433
"877",87,1,0.592496817058,1,7,2,9,1,7,0.441409448706982,-0.435183319076804,-0.669817180000932
"898",89,1,0.721106669982,1,11,2,9,2,7,0.441409448706982,-0.435183319076804,-0.118443281829433
"910",90,1,0.479068092478,1,15,2,10,1,7,0.798237446164722,-0.435183319076804,-0.669817180000932
"926",91,1,0,0,0,6,1,3,7,-2.41321453095494,1.96276558195864,0.432930616342066
"942",92,1,0.229459430906,1,15,2,9,6,7,0.441409448706982,-0.435183319076804,2.08705231085656
"958",93,1,0.664398281078,1,10,2,10,1,7,0.798237446164722,-0.435183319076804,-0.669817180000932
"969",94,1,0.0746942509431,1,15,3,9,1,7,0.441409448706982,0.164303906182059,-0.669817180000932
"985",95,1,0.847958999046,1,13,2,8,1,7,0.0845814512492421,-0.435183319076804,-0.669817180000932
"1011",97,1,0,0,0,4,8,6,7,0.0845814512492421,0.763791131440921,2.08705231085656
"1027",98,4,0.704682406678,1,2,2,9,1,7,0.441409448706982,-0.435183319076804,-0.669817180000932
"1054",101,1,0.249122603447,1,14,3,8,1,7,0.0845814512492421,0.164303906182059,-0.669817180000932
"1069",102,1,0.596649474872,1,11,2,10,1,7,0.798237446164722,-0.435183319076804,-0.669817180000932
"1094",104,1,0,0,0,6,1,6,7,-2.41321453095494,1.96276558195864,2.08705231085656
"1110",105,1,0.195810819569,1,12,2,9,1,7,0.441409448706982,-0.435183319076804,-0.669817180000932
"1123",106,1,0.812171594938,1,12,4,7,2,7,-0.272246546208498,0.763791131440921,-0.118443281829433
"1136",107,1,0,0,0,6,0,3,7,-2.77004252841268,1.96276558195864,0.432930616342066
"1152",108,1,0.91781144077,1,11,2,8,3,7,0.0845814512492421,-0.435183319076804,0.432930616342066
"1173",110,1,0.507321593701,1,10,2,9,2,7,0.441409448706982,-0.435183319076804,-0.118443281829433
"1194",112,1,0.476874003711,1,6,1,9,1,7,0.441409448706982,-1.03467054433567,-0.669817180000932
"1201",113,1,0.645098286856,1,14,3,7,5,7,-0.272246546208498,0.164303906182059,1.53567841268506
"1216",114,1,0.196867928025,1,10,2,10,1,7,0.798237446164722,-0.435183319076804,-0.669817180000932
"1227",115,1,0.952175827464,1,15,3,7,5,7,-0.272246546208498,0.164303906182059,1.53567841268506
"1243",116,1,0.614576968888,1,5,2,8,1,7,0.0845814512492421,-0.435183319076804,-0.669817180000932
"1249",117,1,0,0,0,4,2,6,7,-2.0563865334972,0.763791131440921,2.08705231085656
"1265",118,1,0.20734070841,1,9,3,7,1,7,-0.272246546208498,0.164303906182059,-0.669817180000932
"1275",119,1,0,0,0,5,3,4,7,-1.69955853603946,1.36327835669978,0.984304514513565
"1291",120,1,0.290127965738,1,6,2,10,1,7,0.798237446164722,-0.435183319076804,-0.669817180000932
"1298",121,1,0.1127269438,1,11,2,9,1,7,0.441409448706982,-0.435183319076804,-0.669817180000932
"1320",123,1,0.424025750137,1,7,2,9,1,7,0.441409448706982,-0.435183319076804,-0.669817180000932
"1328",124,1,0.509416354646,1,13,2,9,1,7,0.441409448706982,-0.435183319076804,-0.669817180000932
"1342",125,1,0.427244179416,1,15,3,2,6,7,-2.0563865334972,0.164303906182059,2.08705231085656
"1358",126,1,0.441169543541,1,8,2,8,1,7,0.0845814512492421,-0.435183319076804,-0.669817180000932
"1375",128,1,0.715845021128,1,12,1,10,1,7,0.798237446164722,-1.03467054433567,-0.669817180000932
"1388",129,1,0.156823076832,1,14,2,9,2,7,0.441409448706982,-0.435183319076804,-0.118443281829433
"1403",130,8,0.18813731143,1,3,2,10,1,7,0.798237446164722,-0.435183319076804,-0.669817180000932
"1407",131,1,0,0,0,5,4,3,7,-1.34273053858172,1.36327835669978,0.432930616342066
"1432",133,1,0.1236905611,1,12,3,7,2,7,-0.272246546208498,0.164303906182059,-0.118443281829433
"1445",134,1,0.0161730421823,1,12,2,8,1,7,0.0845814512492421,-0.435183319076804,-0.669817180000932
"37",0,1,0.000211626341752,1,10,1,8,1,8,0.295111151933899,-0.537082021547221,-0.582020858545641
"48",1,1,0.122268142863,1,11,1,9,2,8,0.616401518958708,-0.537082021547221,0.0223854176363708
"67",3,1,0.567897581042,1,9,1,9,1,8,0.616401518958708,-0.537082021547221,-0.582020858545641
"77",4,1,0.135684228922,1,2,1,7,3,8,-0.0261792150909104,-0.537082021547221,0.626791693818383
"80",5,1,0.777477291128,1,12,1,9,1,8,0.616401518958708,-0.537082021547221,-0.582020858545641
"931",6,1,0,0,0,5,1,5,8,-1.95392141723977,2.27868780015665,1.83560424618241
"109",7,1,0.5401912556,1,6,3,4,6,8,-0.990050316165338,0.870802889304717,2.44001052236442
"1161",8,1,0.0718962949004,1,7,1,8,1,8,0.295111151933899,-0.537082021547221,-0.582020858545641
"136",10,1,0.716381448971,1,10,1,4,1,8,-0.990050316165338,-0.537082021547221,-0.582020858545641
"147",11,7,0.604688137866,1,6,1,7,3,8,-0.0261792150909104,-0.537082021547221,0.626791693818383
"1541",12,1,0.158233356954,1,13,3,3,2,8,-1.31134068319015,0.870802889304717,0.0223854176363708
"168",13,1,0.23410140042,1,11,1,9,1,8,0.616401518958708,-0.537082021547221,-0.582020858545641
"180",14,1,0.0177121007941,1,13,1,9,1,8,0.616401518958708,-0.537082021547221,-0.582020858545641
"194",15,1,0.203306013056,1,6,1,7,1,8,-0.0261792150909104,-0.537082021547221,-0.582020858545641
"201",16,1,0.920966436062,1,7,1,7,1,8,-0.0261792150909104,-0.537082021547221,-0.582020858545641
"209",17,1,0.208703167432,1,2,1,8,1,8,0.295111151933899,-0.537082021547221,-0.582020858545641
"212",18,4,0.896868681077,1,2,1,8,1,8,0.295111151933899,-0.537082021547221,-0.582020858545641
"215",19,1,0.000632148362456,1,8,1,7,2,8,-0.0261792150909104,-0.537082021547221,0.0223854176363708
"233",21,1,0,0,0,3,3,5,8,-1.31134068319015,0.870802889304717,1.83560424618241
"255",23,1,0.597657023332,1,15,1,10,1,8,0.937691885983518,-0.537082021547221,-0.582020858545641
"271",24,1,0,0,0,3,4,1,8,-0.990050316165338,0.870802889304717,-0.582020858545641
"287",25,1,0.285825608972,1,8,3,4,3,8,-0.990050316165338,0.870802889304717,0.626791693818383
"2961",26,1,0.707045655311,1,13,1,10,1,8,0.937691885983518,-0.537082021547221,-0.582020858545641
"310",27,1,0,0,0,6,0,6,8,-2.27521178426458,2.98263025558262,2.44001052236442
"336",29,1,0.280790950038,1,11,2,5,2,8,-0.668759949140529,0.166860433878748,0.0223854176363708
"348",30,5,0.671412216711,1,2,1,8,1,8,0.295111151933899,-0.537082021547221,-0.582020858545641
"370",33,1,0.901643244409,1,1,1,10,1,8,0.937691885983518,-0.537082021547221,-0.582020858545641
"372",34,1,0.782809592271,1,15,1,10,1,8,0.937691885983518,-0.537082021547221,-0.582020858545641
"388",35,1,0.129841293897,1,9,1,10,1,8,0.937691885983518,-0.537082021547221,-0.582020858545641
"398",36,1,0.872078703154,1,7,1,9,2,8,0.616401518958708,-0.537082021547221,0.0223854176363708
"406",37,1,0.257432521917,1,15,1,10,1,8,0.937691885983518,-0.537082021547221,-0.582020858545641
"431",39,1,0,0,0,4,0,2,8,-2.27521178426458,1.57474534473069,0.0223854176363708
"454",41,1,0.401025090692,1,15,2,5,1,8,-0.668759949140529,0.166860433878748,-0.582020858545641
"470",42,1,0.838353656289,1,1,1,10,1,8,0.937691885983518,-0.537082021547221,-0.582020858545641
"485",44,1,0.203602289934,1,8,1,7,1,8,-0.0261792150909104,-0.537082021547221,-0.582020858545641
"523",49,1,0.907846968214,1,15,1,10,1,8,0.937691885983518,-0.537082021547221,-0.582020858545641
"539",50,1,0.924092703261,1,10,2,5,2,8,-0.668759949140529,0.166860433878748,0.0223854176363708
"562",53,1,0,0,0,3,2,4,8,-1.63263105021496,0.870802889304717,1.2311979700004
"578",54,1,0.574467896284,1,2,2,5,1,8,-0.668759949140529,0.166860433878748,-0.582020858545641
"581",55,1,0.045762489709,1,2,3,5,1,8,-0.668759949140529,0.870802889304717,-0.582020858545641
"584",56,1,0.238679356055,1,8,1,9,5,8,0.616401518958708,-0.537082021547221,1.83560424618241
"593",57,1,0.179620929436,1,9,2,5,6,8,-0.668759949140529,0.166860433878748,2.44001052236442
"603",58,1,0.625818686742,1,2,1,9,1,8,0.616401518958708,-0.537082021547221,-0.582020858545641
"606",59,1,0.199874935659,1,2,1,8,6,8,0.295111151933899,-0.537082021547221,2.44001052236442
"620",61,1,0.130142008102,1,8,3,5,5,8,-0.668759949140529,0.870802889304717,1.83560424618241
"629",62,1,0.809331492866,1,13,1,10,1,8,0.937691885983518,-0.537082021547221,-0.582020858545641
"643",63,1,0,0,0,5,1,6,8,-1.95392141723977,2.27868780015665,2.44001052236442
"659",64,1,0.963484898753,1,5,1,8,3,8,0.295111151933899,-0.537082021547221,0.626791693818383
"665",65,1,0.580614958842,1,2,1,9,1,8,0.616401518958708,-0.537082021547221,-0.582020858545641
"673",67,10,0.611116458658,1,2,1,8,1,8,0.295111151933899,-0.537082021547221,-0.582020858545641
"676",68,10,0.863369596531,1,8,1,8,3,8,0.295111151933899,-0.537082021547221,0.626791693818383
"685",69,1,0.851642083878,1,2,2,5,3,8,-0.668759949140529,0.166860433878748,0.626791693818383
"701",71,1,0,0,0,6,0,5,8,-2.27521178426458,2.98263025558262,1.83560424618241
"7291",73,1,0.316081007833,1,12,2,5,3,8,-0.668759949140529,0.166860433878748,0.626791693818383
"742",74,1,0.210691089712,1,10,2,5,1,8,-0.668759949140529,0.166860433878748,-0.582020858545641
"753",75,6,0.848780349607,1,3,2,5,2,8,-0.668759949140529,0.166860433878748,0.0223854176363708
"767",77,1,0.248937772299,1,2,1,9,1,8,0.616401518958708,-0.537082021547221,-0.582020858545641
"770",78,1,0.172314017993,1,2,1,9,6,8,0.616401518958708,-0.537082021547221,2.44001052236442
"773",79,1,0.704231024967,1,3,1,9,2,8,0.616401518958708,-0.537082021547221,0.0223854176363708
"783",81,1,0,0,0,6,1,5,8,-1.95392141723977,2.98263025558262,1.83560424618241
"799",82,1,0.774170117541,1,9,3,4,6,8,-0.990050316165338,0.870802889304717,2.44001052236442
"809",83,7,0.301869957661,1,2,3,5,2,8,-0.668759949140529,0.870802889304717,0.0223854176363708
"812",84,8,0.841540339394,1,1,1,9,1,8,0.616401518958708,-0.537082021547221,-0.582020858545641
"814",85,1,0.632746377434,1,10,1,10,1,8,0.937691885983518,-0.537082021547221,-0.582020858545641
"825",86,1,0.388569515158,1,2,1,10,1,8,0.937691885983518,-0.537082021547221,-0.582020858545641
"828",87,1,0.690063665395,1,8,1,8,1,8,0.295111151933899,-0.537082021547221,-0.582020858545641
"8371",88,1,0.032075044066,1,3,1,9,1,8,0.616401518958708,-0.537082021547221,-0.582020858545641
"847",90,1,0,0,0,6,1,6,8,-1.95392141723977,2.98263025558262,2.44001052236442
"863",91,1,0,0,0,5,0,6,8,-2.27521178426458,2.27868780015665,2.44001052236442
"879",92,1,0,0,0,6,0,6,8,-2.27521178426458,2.98263025558262,2.44001052236442
"895",93,1,0.157777677654,1,5,1,9,1,8,0.616401518958708,-0.537082021547221,-0.582020858545641
"901",94,4,0.442758487922,1,2,1,9,1,8,0.616401518958708,-0.537082021547221,-0.582020858545641
"904",95,9,0.255376674408,1,3,2,5,1,8,-0.668759949140529,0.166860433878748,-0.582020858545641
"908",96,1,0.449632930698,1,10,1,9,1,8,0.616401518958708,-0.537082021547221,-0.582020858545641
"919",97,1,0.517689914162,1,10,1,10,1,8,0.937691885983518,-0.537082021547221,-0.582020858545641
"930",98,1,0,0,0,5,2,2,8,-1.63263105021496,2.27868780015665,0.0223854176363708
"946",99,10,0.0598370067573,1,6,2,5,1,8,-0.668759949140529,0.166860433878748,-0.582020858545641
"953",100,8,0.308377126333,1,6,1,10,1,8,0.937691885983518,-0.537082021547221,-0.582020858545641
"960",101,1,0.707285612276,1,2,1,9,1,8,0.616401518958708,-0.537082021547221,-0.582020858545641
"963",102,10,0.646667294719,1,9,1,9,5,8,0.616401518958708,-0.537082021547221,1.83560424618241
"973",103,6,0.641882491402,1,4,2,5,2,8,-0.668759949140529,0.166860433878748,0.0223854176363708
"978",104,1,0.434868921374,1,4,1,8,1,8,0.295111151933899,-0.537082021547221,-0.582020858545641
"983",105,9,0.528888019628,1,7,2,5,2,8,-0.668759949140529,0.166860433878748,0.0223854176363708
"991",106,1,0.324174008736,1,2,1,10,1,8,0.937691885983518,-0.537082021547221,-0.582020858545641
"994",107,1,0.350793530514,1,14,2,5,1,8,-0.668759949140529,0.166860433878748,-0.582020858545641
"1009",108,1,0.0181967933831,1,14,1,10,1,8,0.937691885983518,-0.537082021547221,-0.582020858545641
"1024",109,1,0.784347296576,1,13,1,10,1,8,0.937691885983518,-0.537082021547221,-0.582020858545641
"1038",110,1,0.431706472898,1,14,1,10,1,8,0.937691885983518,-0.537082021547221,-0.582020858545641
"1053",111,1,0.232615920035,1,12,1,10,1,8,0.937691885983518,-0.537082021547221,-0.582020858545641
"1066",112,8,0.416274133937,1,2,2,5,1,8,-0.668759949140529,0.166860433878748,-0.582020858545641
"10691",113,7,0.357311621836,1,5,2,5,1,8,-0.668759949140529,0.166860433878748,-0.582020858545641
"1075",114,1,0.161483527962,1,7,2,5,2,8,-0.668759949140529,0.166860433878748,0.0223854176363708
"1083",115,1,0.747121540421,1,6,2,5,5,8,-0.668759949140529,0.166860433878748,1.83560424618241
"1101",117,1,0.730946119934,1,3,1,8,4,8,0.295111151933899,-0.537082021547221,1.2311979700004
"1105",118,1,0.689013043009,1,2,1,5,1,8,-0.668759949140529,-0.537082021547221,-0.582020858545641
"1108",119,1,0.81285814345,1,13,1,10,1,8,0.937691885983518,-0.537082021547221,-0.582020858545641
"1122",120,1,0,0,0,6,0,1,8,-2.27521178426458,2.98263025558262,-0.582020858545641
"1138",121,1,0,0,0,6,0,6,8,-2.27521178426458,2.98263025558262,2.44001052236442
"1154",122,6,0.0893878946999,1,5,1,8,1,8,0.295111151933899,-0.537082021547221,-0.582020858545641
"1160",123,1,0,0,0,2,4,1,8,-0.990050316165338,0.166860433878748,-0.582020858545641
"1176",124,1,0.236780180306,1,7,1,5,1,8,-0.668759949140529,-0.537082021547221,-0.582020858545641
"1184",125,4,0.467944753237,1,3,1,10,1,8,0.937691885983518,-0.537082021547221,-0.582020858545641
"1188",126,1,0.51232006641,1,2,1,8,1,8,0.295111151933899,-0.537082021547221,-0.582020858545641
"1199",128,1,0,0,0,1,0,6,8,-2.27521178426458,-0.537082021547221,2.44001052236442
"1222",130,1,0.84560800248,1,13,1,8,1,8,0.295111151933899,-0.537082021547221,-0.582020858545641
"1236",131,1,0.799893982029,1,15,1,10,1,8,0.937691885983518,-0.537082021547221,-0.582020858545641
"1252",132,1,0,0,0,5,1,2,8,-1.95392141723977,2.27868780015665,0.0223854176363708
"1268",133,1,0.833964457697,1,6,1,10,2,8,0.937691885983518,-0.537082021547221,0.0223854176363708
"12751",134,1,0.665844737262,1,3,1,9,1,8,0.616401518958708,-0.537082021547221,-0.582020858545641
"60",0,1,0.740038201962,1,10,4,6,6,9,0.0776746668945199,0.132958292414905,1.22225358450048
"71",1,1,0.493803102851,1,11,4,7,2,9,0.333432716425256,0.132958292414905,-0.49654051870332
"83",2,7,0.42955471087,1,3,1,9,1,9,0.844948815486728,-1.49880256904075,-0.92623904450427
"992",4,8,0.420730233753,1,6,2,9,6,9,0.844948815486728,-0.954882281888866,1.22225358450048
"119",6,1,0.572300432948,1,15,6,2,2,9,-0.945357531228424,1.22079886671868,-0.49654051870332
"135",7,1,0.672562508276,1,11,2,8,1,9,0.589190765955992,-0.954882281888866,-0.92623904450427
"1471",8,1,0.287053041757,1,10,1,9,1,9,0.844948815486728,-1.49880256904075,-0.92623904450427
"158",9,1,0,0,0,6,0,6,9,-1.4568736302899,1.22079886671868,1.22225358450048
"174",10,1,0.586877733222,1,15,6,5,4,9,-0.178083382636216,1.22079886671868,0.36285653289858
"190",11,1,0.36948628047,1,11,4,7,6,9,0.333432716425256,0.132958292414905,1.22225358450048
"202",12,1,0.441259012892,1,13,2,9,6,9,0.844948815486728,-0.954882281888866,1.22225358450048
"216",13,1,0.663252997241,1,12,3,7,1,9,0.333432716425256,-0.41096199473698,-0.92623904450427
"247",16,1,0.889957033032,1,13,3,8,1,9,0.589190765955992,-0.41096199473698,-0.92623904450427
"261",17,1,0.325045772734,1,11,2,6,6,9,0.0776746668945199,-0.954882281888866,1.22225358450048
"279",19,1,0.710098194621,1,5,1,10,1,9,1.10070686501746,-1.49880256904075,-0.92623904450427
"285",20,1,0.319445525325,1,7,2,10,1,9,1.10070686501746,-0.954882281888866,-0.92623904450427
"293",21,1,0.341308574418,1,8,1,10,1,9,1.10070686501746,-1.49880256904075,-0.92623904450427
"302",22,1,0,0,0,6,0,6,9,-1.4568736302899,1.22079886671868,1.22225358450048
"323",24,1,0,0,0,6,2,6,9,-0.945357531228424,1.22079886671868,1.22225358450048
"3441",26,6,0.153200063345,1,4,1,10,6,9,1.10070686501746,-1.49880256904075,1.22225358450048
"349",27,1,0.702747251242,1,5,1,9,1,9,0.844948815486728,-1.49880256904075,-0.92623904450427
"355",28,8,0.487670717601,1,5,1,10,1,9,1.10070686501746,-1.49880256904075,-0.92623904450427
"361",29,1,0.322679653698,1,10,1,10,3,9,1.10070686501746,-1.49880256904075,-0.06684199290237
"386",31,1,0.956881474231,1,12,5,6,2,9,0.0776746668945199,0.676878579566791,-0.49654051870332
"399",32,1,0.936966411486,1,2,1,10,1,9,1.10070686501746,-1.49880256904075,-0.92623904450427
"410",34,1,0.0536960881873,1,8,2,8,1,9,0.589190765955992,-0.954882281888866,-0.92623904450427
"419",35,1,0,0,0,6,0,6,9,-1.4568736302899,1.22079886671868,1.22225358450048
"435",36,1,0,0,0,6,1,6,9,-1.20111558075916,1.22079886671868,1.22225358450048
"451",37,10,0.40609285891,1,4,4,6,1,9,0.0776746668945199,0.132958292414905,-0.92623904450427
"456",38,1,0.756234102424,1,12,2,10,1,9,1.10070686501746,-0.954882281888866,-0.92623904450427
"475",40,1,0.572662928389,1,12,3,7,1,9,0.333432716425256,-0.41096199473698,-0.92623904450427
"500",42,1,0.910788574365,1,10,2,10,1,9,1.10070686501746,-0.954882281888866,-0.92623904450427
"511",43,1,0.0713522103979,1,15,6,5,2,9,-0.178083382636216,1.22079886671868,-0.49654051870332
"527",44,1,0.490810979449,1,9,2,10,1,9,1.10070686501746,-0.954882281888866,-0.92623904450427
"537",45,1,0.0398393414725,1,13,2,10,1,9,1.10070686501746,-0.954882281888866,-0.92623904450427
"558",47,1,0.198959822395,1,8,1,10,1,9,1.10070686501746,-1.49880256904075,-0.92623904450427
"567",48,1,0.0545453242157,1,4,1,10,1,9,1.10070686501746,-1.49880256904075,-0.92623904450427
"572",49,1,0.735248961319,1,11,4,5,2,9,-0.178083382636216,0.132958292414905,-0.49654051870332
"5841",50,9,0.361401471557,1,6,3,6,6,9,0.0776746668945199,-0.41096199473698,1.22225358450048
"591",51,1,0,0,0,6,0,6,9,-1.4568736302899,1.22079886671868,1.22225358450048
"607",52,1,0.229090976114,1,15,3,10,1,9,1.10070686501746,-0.41096199473698,-0.92623904450427
"641",55,1,0.367939701515,1,12,4,7,1,9,0.333432716425256,0.132958292414905,-0.92623904450427
"6591",57,1,0,0,0,6,0,6,9,-1.4568736302899,1.22079886671868,1.22225358450048
"675",58,1,0.127958160789,1,4,2,10,1,9,1.10070686501746,-0.954882281888866,-0.92623904450427
"680",59,1,0.0825905931342,1,10,4,6,2,9,0.0776746668945199,0.132958292414905,-0.49654051870332
"691",60,1,0,0,0,6,0,6,9,-1.4568736302899,1.22079886671868,1.22225358450048
"707",61,1,0.777952767727,1,13,5,5,6,9,-0.178083382636216,0.676878579566791,1.22225358450048
"7292",63,1,0.599399185987,1,8,4,6,1,9,0.0776746668945199,0.132958292414905,-0.92623904450427
"738",64,1,0.276062466641,1,9,3,7,5,9,0.333432716425256,-0.41096199473698,0.79255505869953
"748",65,1,0.845905644688,1,4,1,9,1,9,0.844948815486728,-1.49880256904075,-0.92623904450427
"7531",66,1,0.64795480208,1,8,3,7,2,9,0.333432716425256,-0.41096199473698,-0.49654051870332
"762",67,1,0,0,0,6,0,6,9,-1.4568736302899,1.22079886671868,1.22225358450048
"7831",69,1,0,0,0,6,0,6,9,-1.4568736302899,1.22079886671868,1.22225358450048
"7991",70,1,0,0,0,5,8,1,9,0.589190765955992,0.676878579566791,-0.92623904450427
"815",71,1,0.575544118634,1,10,3,6,2,9,0.0776746668945199,-0.41096199473698,-0.49654051870332
"836",73,1,0.100439568392,1,11,5,3,6,9,-0.689599481697688,0.676878579566791,1.22225358450048
"856",75,3,0.0139035093162,1,3,2,9,1,9,0.844948815486728,-0.954882281888866,-0.92623904450427
"873",77,1,0,0,0,6,1,6,9,-1.20111558075916,1.22079886671868,1.22225358450048
"913",80,1,0.275401304985,1,15,5,7,6,9,0.333432716425256,0.676878579566791,1.22225358450048
"929",81,1,0.606908166454,1,11,2,9,1,9,0.844948815486728,-0.954882281888866,-0.92623904450427
"941",82,1,0.496200283167,1,8,2,9,1,9,0.844948815486728,-0.954882281888866,-0.92623904450427
"984",87,1,0.564368541134,1,4,3,8,1,9,0.589190765955992,-0.41096199473698,-0.92623904450427
"989",88,1,0.216163337303,1,10,2,9,1,9,0.844948815486728,-0.954882281888866,-0.92623904450427
"1000",89,1,0.0814256242593,1,12,5,5,2,9,-0.178083382636216,0.676878579566791,-0.49654051870332
"1013",90,1,0.346509121096,1,7,3,8,1,9,0.589190765955992,-0.41096199473698,-0.92623904450427
"1021",91,1,0.662393521226,1,5,2,8,1,9,0.589190765955992,-0.954882281888866,-0.92623904450427
"10271",92,1,0.779858428803,1,3,3,8,1,9,0.589190765955992,-0.41096199473698,-0.92623904450427
"1037",94,1,0.56417944275,1,5,3,8,1,9,0.589190765955992,-0.41096199473698,-0.92623904450427
"1052",96,9,0.0115524089197,1,4,3,8,6,9,0.589190765955992,-0.41096199473698,1.22225358450048
"10661",98,1,0.338205859181,1,11,5,4,2,9,-0.433841432166952,0.676878579566791,-0.49654051870332
"1078",99,1,0.771977395576,1,8,2,8,1,9,0.589190765955992,-0.954882281888866,-0.92623904450427
"1087",100,1,0.824551522819,1,7,2,10,1,9,1.10070686501746,-0.954882281888866,-0.92623904450427
"1117",104,1,0.441808558717,1,4,2,9,1,9,0.844948815486728,-0.954882281888866,-0.92623904450427
"11221",105,1,0.715062197662,1,2,1,10,1,9,1.10070686501746,-1.49880256904075,-0.92623904450427
"1125",106,1,0,0,0,6,0,6,9,-1.4568736302899,1.22079886671868,1.22225358450048
"1141",107,9,0.94609979479,1,4,3,7,2,9,0.333432716425256,-0.41096199473698,-0.49654051870332
"1146",108,1,0.7073347642,1,8,3,6,1,9,0.0776746668945199,-0.41096199473698,-0.92623904450427
"1155",109,1,0.195457747774,1,14,5,10,1,9,1.10070686501746,0.676878579566791,-0.92623904450427
"1170",110,1,0.941508868505,1,12,2,10,1,9,1.10070686501746,-0.954882281888866,-0.92623904450427
"1183",111,1,0.623834177786,1,4,2,10,2,9,1.10070686501746,-0.954882281888866,-0.49654051870332
"11881",112,1,0.524317573312,1,3,2,10,1,9,1.10070686501746,-0.954882281888866,-0.92623904450427
"1192",113,1,0.505942604199,1,11,5,5,2,9,-0.178083382636216,0.676878579566791,-0.49654051870332
"1204",114,1,0.0848235923768,1,15,6,10,1,9,1.10070686501746,1.22079886671868,-0.92623904450427
"1220",115,1,0,0,0,6,0,6,9,-1.4568736302899,1.22079886671868,1.22225358450048
"12361",116,1,0.661466802652,1,6,2,10,1,9,1.10070686501746,-0.954882281888866,-0.92623904450427
"12431",117,1,0.558265169166,1,13,5,10,1,9,1.10070686501746,0.676878579566791,-0.92623904450427
"1257",118,1,0.893110948185,1,7,5,7,1,9,0.333432716425256,0.676878579566791,-0.92623904450427
"12752",120,1,0.809431503374,1,6,2,9,2,9,0.844948815486728,-0.954882281888866,-0.49654051870332
"1282",121,1,0.161623474414,1,8,2,8,1,9,0.589190765955992,-0.954882281888866,-0.92623904450427
"12911",122,1,0.208512703721,1,11,4,9,1,9,0.844948815486728,0.132958292414905,-0.92623904450427
"1303",123,1,0.439330823858,1,8,2,9,1,9,0.844948815486728,-0.954882281888866,-0.92623904450427
"1312",124,1,0.865930616594,1,15,6,10,1,9,1.10070686501746,1.22079886671868,-0.92623904450427
"13281",125,1,0.621221957801,1,5,1,10,1,9,1.10070686501746,-1.49880256904075,-0.92623904450427
"1334",126,1,0.841393224953,1,12,2,10,1,9,1.10070686501746,-0.954882281888866,-0.92623904450427
"1353",128,7,0.691453572595,1,6,3,9,1,9,0.844948815486728,-0.41096199473698,-0.92623904450427
"1360",129,1,0.0206717975816,1,12,3,7,1,9,0.333432716425256,-0.41096199473698,-0.92623904450427
"1373",130,1,0.36107481605,1,14,6,9,6,9,0.844948815486728,1.22079886671868,1.22225358450048
"13881",131,1,0,0,0,6,0,6,9,-1.4568736302899,1.22079886671868,1.22225358450048
"1411",133,1,0.758220318035,1,13,5,10,1,9,1.10070686501746,0.676878579566791,-0.92623904450427
"1425",134,1,0.157305955712,1,5,1,10,1,9,1.10070686501746,-1.49880256904075,-0.92623904450427
"63",0,1,0,0,0,3,8,2,11,-0.083292939836177,0.415303383481507,0.0045382563947107
"79",1,5,0,0,0,1,9,1,11,0.366488935279179,-1.0999927454375,-0.608126356891242
"95",2,1,0.627959867459,1,9,4,8,2,11,-0.083292939836177,1.17295144794101,0.0045382563947107
"113",4,1,0.780330150752,1,8,4,7,2,11,-0.533074814951533,1.17295144794101,0.0045382563947107
"122",5,1,0.80226487972,1,5,4,9,1,11,0.366488935279179,1.17295144794101,-0.608126356891242
"128",6,1,0.881920693369,1,2,3,9,2,11,0.366488935279179,0.415303383481507,0.0045382563947107
"131",7,1,0.0688236169517,1,15,4,8,2,11,-0.083292939836177,1.17295144794101,0.0045382563947107
"1472",8,1,0.265891090254,1,9,3,8,2,11,-0.083292939836177,0.415303383481507,0.0045382563947107
"157",9,9,0.678575085709,1,5,3,7,2,11,-0.533074814951533,0.415303383481507,0.0045382563947107
"170",11,1,0.439461895658,1,12,3,7,4,11,-0.533074814951533,0.415303383481507,1.22986748296662
"183",12,1,0.558911653512,1,8,2,8,1,11,-0.083292939836177,-0.342344680977999,-0.608126356891242
"192",13,1,0.833197482876,1,12,1,10,1,11,0.816270810394535,-1.0999927454375,-0.608126356891242
"205",14,1,0.172459767098,1,11,3,9,5,11,0.366488935279179,0.415303383481507,1.84253209625257
"217",15,1,0,0,0,5,1,5,11,-3.23176606564367,1.93059951240052,1.84253209625257
"262",19,1,0.876192787502,1,14,3,9,2,11,0.366488935279179,0.415303383481507,0.0045382563947107
"277",20,1,0.465163232177,1,13,2,8,2,11,-0.083292939836177,-0.342344680977999,0.0045382563947107
"291",21,8,0.888355158153,1,7,4,8,1,11,-0.083292939836177,1.17295144794101,-0.608126356891242
"299",22,1,0.528455209627,1,15,2,9,1,11,0.366488935279179,-0.342344680977999,-0.608126356891242
"315",23,1,0,0,0,4,4,5,11,-1.8824204402976,1.17295144794101,1.84253209625257
"331",24,1,0.623269271993,1,11,3,8,1,11,-0.083292939836177,0.415303383481507,-0.608126356891242
"343",25,1,0,0,0,3,7,5,11,-0.533074814951533,0.415303383481507,1.84253209625257
"385",29,1,0.253874127375,1,12,4,8,2,11,-0.083292939836177,1.17295144794101,0.0045382563947107
"3981",30,1,0.849250706218,1,15,3,9,1,11,0.366488935279179,0.415303383481507,-0.608126356891242
"414",31,1,0.828747185704,1,6,4,8,2,11,-0.083292939836177,1.17295144794101,0.0045382563947107
"443",34,1,0,0,0,5,0,6,11,-3.68154794075903,1.93059951240052,2.45519670953852
"459",35,1,0.906685412658,1,11,3,8,1,11,-0.083292939836177,0.415303383481507,-0.608126356891242
"4851",38,1,0.827702707305,1,15,2,8,1,11,-0.083292939836177,-0.342344680977999,-0.608126356891242
"519",41,1,0.294174268158,1,10,3,7,2,11,-0.533074814951533,0.415303383481507,0.0045382563947107
"530",42,1,0.291177366089,1,15,4,7,1,11,-0.533074814951533,1.17295144794101,-0.608126356891242
"556",44,1,0,0,0,5,0,6,11,-3.68154794075903,1.93059951240052,2.45519670953852
"5721",45,1,0.508320328547,1,14,3,9,1,11,0.366488935279179,0.415303383481507,-0.608126356891242
"587",46,1,0,0,0,2,8,2,11,-0.083292939836177,-0.342344680977999,0.0045382563947107
"608",48,1,0.0152681578766,1,13,4,6,5,11,-0.982856690066889,1.17295144794101,1.84253209625257
"622",49,1,0.46181066132,1,10,3,8,1,11,-0.083292939836177,0.415303383481507,-0.608126356891242
"633",50,1,0.327573000861,1,15,3,7,4,11,-0.533074814951533,0.415303383481507,1.22986748296662
"649",51,1,0,0,0,5,1,3,11,-3.23176606564367,1.93059951240052,0.617202869680664
"674",53,1,0,0,0,4,7,6,11,-0.533074814951533,1.17295144794101,2.45519670953852
"690",54,1,0.860222849355,1,14,3,9,1,11,0.366488935279179,0.415303383481507,-0.608126356891242
"705",55,1,0.525466499545,1,13,1,10,1,11,0.816270810394535,-1.0999927454375,-0.608126356891242
"726",57,1,0.0288450116932,1,14,2,9,2,11,0.366488935279179,-0.342344680977999,0.0045382563947107
"741",58,1,0.564557639504,1,15,2,9,1,11,0.366488935279179,-0.342344680977999,-0.608126356891242
"7621",60,1,0.297822774548,1,9,3,8,3,11,-0.083292939836177,0.415303383481507,0.617202869680664
"772",61,1,0,0,0,5,2,5,11,-2.78198419052831,1.93059951240052,1.84253209625257
"788",62,1,0,0,0,5,5,5,11,-1.43263856518225,1.93059951240052,1.84253209625257
"8041",63,1,0.163013040292,1,10,1,10,2,11,0.816270810394535,-1.0999927454375,0.0045382563947107
"8151",64,1,0.0289668675105,1,13,1,9,1,11,0.366488935279179,-1.0999927454375,-0.608126356891242
"835",66,1,0,0,0,6,2,5,11,-2.78198419052831,2.68824757686002,1.84253209625257
"851",67,1,0.945232126789,1,15,2,8,1,11,-0.083292939836177,-0.342344680977999,-0.608126356891242
"867",68,1,0.764059839727,1,12,2,9,1,11,0.366488935279179,-0.342344680977999,-0.608126356891242
"880",69,1,0.0924994845846,1,12,2,9,1,11,0.366488935279179,-0.342344680977999,-0.608126356891242
"899",71,1,0.845782082208,1,10,2,9,4,11,0.366488935279179,-0.342344680977999,1.22986748296662
"9101",72,10,0.177238426433,1,9,3,9,1,11,0.366488935279179,0.415303383481507,-0.608126356891242
"9301",74,1,0.359167789647,1,13,2,9,1,11,0.366488935279179,-0.342344680977999,-0.608126356891242
"944",75,1,0.881656843121,1,14,3,8,1,11,-0.083292939836177,0.415303383481507,-0.608126356891242
"959",76,1,0.595810071492,1,13,5,8,5,11,-0.083292939836177,1.93059951240052,1.84253209625257
"9731",77,1,0,0,0,3,7,1,11,-0.533074814951533,0.415303383481507,-0.608126356891242
"9891",78,1,0,0,0,2,9,1,11,0.366488935279179,-0.342344680977999,-0.608126356891242
"1018",80,1,0.141802619517,1,13,3,9,1,11,0.366488935279179,0.415303383481507,-0.608126356891242
"1045",82,1,0.813930269811,1,13,2,10,4,11,0.816270810394535,-0.342344680977999,1.22986748296662
"10662",84,1,0,0,0,6,3,6,11,-2.33220231541296,2.68824757686002,2.45519670953852
"11051",88,1,0.88778376703,1,7,2,8,2,11,-0.083292939836177,-0.342344680977999,0.0045382563947107
"1113",89,1,0,0,0,5,3,6,11,-2.33220231541296,1.93059951240052,2.45519670953852
"1129",90,1,0.313856541921,1,11,2,9,1,11,0.366488935279179,-0.342344680977999,-0.608126356891242
"11411",91,1,0.795787407013,1,6,4,8,1,11,-0.083292939836177,1.17295144794101,-0.608126356891242
"11882",96,1,0.311140556747,1,9,2,9,1,11,0.366488935279179,-0.342344680977999,-0.608126356891242
"1198",97,1,0.797307361994,1,12,3,8,1,11,-0.083292939836177,0.415303383481507,-0.608126356891242
"1211",98,1,0,0,0,2,8,1,11,-0.083292939836177,-0.342344680977999,-0.608126356891242
"12362",100,1,0,0,0,3,6,6,11,-0.982856690066889,0.415303383481507,2.45519670953852
"12521",101,1,0.476265423131,1,11,2,10,1,11,0.816270810394535,-0.342344680977999,-0.608126356891242
"1264",102,1,0.479015882898,1,2,2,9,1,11,0.366488935279179,-0.342344680977999,-0.608126356891242
"1267",103,1,0.178269592841,1,11,3,9,1,11,0.366488935279179,0.415303383481507,-0.608126356891242
"1279",104,1,0.0924349726847,1,14,4,7,5,11,-0.533074814951533,1.17295144794101,1.84253209625257
"1294",105,1,0.363824593165,1,10,2,9,1,11,0.366488935279179,-0.342344680977999,-0.608126356891242
"1313",107,1,0.362730280176,1,15,2,9,1,11,0.366488935279179,-0.342344680977999,-0.608126356891242
"1329",108,1,0,0,0,4,5,6,11,-1.43263856518225,1.17295144794101,2.45519670953852
"1354",110,1,0.257569396374,1,15,1,9,1,11,0.366488935279179,-1.0999927454375,-0.608126356891242
"1370",111,1,0.0618126410554,1,15,2,9,1,11,0.366488935279179,-0.342344680977999,-0.608126356891242
"1386",112,1,0,0,0,4,6,2,11,-0.982856690066889,1.17295144794101,0.0045382563947107
"1413",114,1,0.0278179412708,1,10,2,9,1,11,0.366488935279179,-0.342344680977999,-0.608126356891242
"1435",116,1,0,0,0,3,8,2,11,-0.083292939836177,0.415303383481507,0.0045382563947107
"1460",118,1,0,0,0,4,5,4,11,-1.43263856518225,1.17295144794101,1.22986748296662
"1487",120,1,0.000723625562387,1,10,1,9,1,11,0.366488935279179,-1.0999927454375,-0.608126356891242
"1498",121,1,0.567771629227,1,12,2,9,1,11,0.366488935279179,-0.342344680977999,-0.608126356891242
"1511",122,1,0.0961292176798,1,14,2,9,1,11,0.366488935279179,-0.342344680977999,-0.608126356891242
"1526",123,1,0.462777315843,1,7,3,8,4,11,-0.083292939836177,0.415303383481507,1.22986748296662
"1534",124,1,0,0,0,4,3,6,11,-2.33220231541296,1.17295144794101,2.45519670953852
"1550",125,1,0.659484000367,1,14,2,9,1,11,0.366488935279179,-0.342344680977999,-0.608126356891242
"1565",126,1,0.270883082587,1,10,2,9,3,11,0.366488935279179,-0.342344680977999,0.617202869680664
"1583",128,1,0.0907354766241,1,15,2,9,1,11,0.366488935279179,-0.342344680977999,-0.608126356891242
"1599",129,1,0,0,0,3,7,5,11,-0.533074814951533,0.415303383481507,1.84253209625257
"1615",130,1,0,0,0,3,8,1,11,-0.083292939836177,0.415303383481507,-0.608126356891242
"1631",131,1,0.138048982626,1,3,1,8,1,11,-0.083292939836177,-1.0999927454375,-0.608126356891242
"1635",132,1,0.32491367693,1,12,4,7,3,11,-0.533074814951533,1.17295144794101,0.617202869680664
"1648",133,1,0,0,0,5,3,6,11,-2.33220231541296,1.93059951240052,2.45519670953852
"57",1,8,0.0984666647564,1,5,3,8,2,12,0.318117194831797,-0.123001687506372,-0.218348731329889
"631",2,1,0.825110284641,1,15,2,8,2,12,0.318117194831797,-0.844968114174206,-0.218348731329889
"791",3,1,0.853631030157,1,10,4,6,2,12,-0.657924198402126,0.598964739161462,-0.218348731329889
"100",5,1,0.197594832498,1,6,4,6,5,12,-0.657924198402126,0.598964739161462,1.70406944668326
"107",6,1,0.602474935935,1,2,5,8,5,12,0.318117194831797,1.3209311658293,1.70406944668326
"110",7,1,0,0,0,6,3,5,12,-2.12198628825301,2.04289759249713,1.70406944668326
"139",9,1,0,0,0,6,3,6,12,-2.12198628825301,2.04289759249713,2.34487550602098
"155",10,1,0.745106652845,1,7,3,9,1,12,0.806137891448759,-0.123001687506372,-0.859154790667605
"176",12,1,0.851995022007,1,15,5,4,2,12,-1.63396559163605,1.3209311658293,-0.218348731329889
"1921",13,1,0.482641861323,1,11,4,6,3,12,-0.657924198402126,0.598964739161462,0.422457328007828
"204",14,1,0.699984162158,1,10,3,7,2,12,-0.169903501785165,-0.123001687506372,-0.218348731329889
"2151",15,1,0.693317591067,1,7,3,8,1,12,0.318117194831797,-0.123001687506372,-0.859154790667605
"234",17,1,0.473005012143,1,10,4,7,5,12,-0.169903501785165,0.598964739161462,1.70406944668326
"245",18,1,0,0,0,4,6,5,12,-0.657924198402126,0.598964739161462,1.70406944668326
"2611",19,1,0.149218416132,1,10,4,6,5,12,-0.657924198402126,0.598964739161462,1.70406944668326
"2851",22,1,0,0,0,2,7,1,12,-0.169903501785165,-0.844968114174206,-0.859154790667605
"301",23,1,0.47942275161,1,12,3,6,1,12,-0.657924198402126,-0.123001687506372,-0.859154790667605
"314",24,1,0.163896409591,1,12,3,8,1,12,0.318117194831797,-0.123001687506372,-0.859154790667605
"3361",26,1,0.269808908241,1,15,4,9,1,12,0.806137891448759,0.598964739161462,-0.859154790667605
"352",27,1,0.120281927258,1,8,2,7,1,12,-0.169903501785165,-0.844968114174206,-0.859154790667605
"378",30,1,0.140150910054,1,10,3,8,2,12,0.318117194831797,-0.123001687506372,-0.218348731329889
"389",31,1,0.79068926016,1,10,5,6,1,12,-0.657924198402126,1.3209311658293,-0.859154790667605
"418",34,1,0.562269003014,1,10,1,6,5,12,-0.657924198402126,-1.56693454084204,1.70406944668326
"436",36,1,0.288990446774,1,10,4,6,2,12,-0.657924198402126,0.598964739161462,-0.218348731329889
"447",37,1,0.122809155364,1,15,5,4,4,12,-1.63396559163605,1.3209311658293,1.06326338734555
"463",38,1,0.656698724648,1,10,3,7,2,12,-0.169903501785165,-0.123001687506372,-0.218348731329889
"482",40,1,0.623922582992,1,13,3,8,2,12,0.318117194831797,-0.123001687506372,-0.218348731329889
"505",42,1,0.440012806808,1,8,4,6,5,12,-0.657924198402126,0.598964739161462,1.70406944668326
"514",43,1,0,0,0,4,7,5,12,-0.169903501785165,0.598964739161462,1.70406944668326
"5301",44,1,0.775230638581,1,12,3,8,2,12,0.318117194831797,-0.123001687506372,-0.218348731329889
"552",46,1,0.706532290773,1,6,3,8,1,12,0.318117194831797,-0.123001687506372,-0.859154790667605
"559",47,1,0.247756760771,1,12,2,9,2,12,0.806137891448759,-0.844968114174206,-0.218348731329889
"5722",48,1,0.546443789994,1,3,2,9,1,12,0.806137891448759,-0.844968114174206,-0.859154790667605
"604",53,1,0,0,0,6,3,6,12,-2.12198628825301,2.04289759249713,2.34487550602098
"6201",54,1,0.289083971977,1,9,6,4,2,12,-1.63396559163605,2.04289759249713,-0.218348731329889
"630",55,1,0.238326417937,1,10,3,6,3,12,-0.657924198402126,-0.123001687506372,0.422457328007828
"6411",56,8,0.273956784527,1,8,3,6,5,12,-0.657924198402126,-0.123001687506372,1.70406944668326
"650",57,1,0.1625556543,1,11,3,6,5,12,-0.657924198402126,-0.123001687506372,1.70406944668326
"662",58,1,0.588803191597,1,11,4,6,1,12,-0.657924198402126,0.598964739161462,-0.859154790667605
"6741",59,1,0.375473940614,1,12,2,8,2,12,0.318117194831797,-0.844968114174206,-0.218348731329889
"687",60,5,0.0207595201064,1,2,1,9,1,12,0.806137891448759,-1.56693454084204,-0.859154790667605
"6901",61,1,0.891658918423,1,14,2,10,2,12,1.29415858806572,-0.844968114174206,-0.218348731329889
"7051",62,1,0.57340635125,1,11,3,9,2,12,0.806137891448759,-0.123001687506372,-0.218348731329889
"717",63,1,0.558180518638,1,8,1,8,2,12,0.318117194831797,-1.56693454084204,-0.218348731329889
"743",66,1,0.289789848219,1,10,2,10,1,12,1.29415858806572,-0.844968114174206,-0.859154790667605
"754",67,1,0.892156922986,1,3,3,7,1,12,-0.169903501785165,-0.123001687506372,-0.859154790667605
"758",68,1,0.230378483466,1,8,4,6,2,12,-0.657924198402126,0.598964739161462,-0.218348731329889
"7671",69,1,0.158366135409,1,13,5,4,4,12,-1.63396559163605,1.3209311658293,1.06326338734555
"7811",70,1,0.782566563314,1,11,3,8,3,12,0.318117194831797,-0.123001687506372,0.422457328007828
"7931",71,1,0.0130314039852,1,14,5,6,2,12,-0.657924198402126,1.3209311658293,-0.218348731329889
"808",72,1,0.65835179943,1,11,3,8,5,12,0.318117194831797,-0.123001687506372,1.70406944668326
"820",73,6,0.491429133166,1,2,2,9,1,12,0.806137891448759,-0.844968114174206,-0.859154790667605
"8351",76,9,0.443971926055,1,8,1,7,5,12,-0.169903501785165,-1.56693454084204,1.70406944668326
"844",77,1,0.241033528437,1,11,5,6,5,12,-0.657924198402126,1.3209311658293,1.70406944668326
"8561",78,1,0.410874590234,1,11,3,5,5,12,-1.14594489501909,-0.123001687506372,1.70406944668326
"868",79,1,0.456167747325,1,11,4,6,5,12,-0.657924198402126,0.598964739161462,1.70406944668326
"8801",80,1,0.45550112435,1,5,5,6,4,12,-0.657924198402126,1.3209311658293,1.06326338734555
"886",81,1,0.0942607618781,1,12,1,9,1,12,0.806137891448759,-1.56693454084204,-0.859154790667605
"8991",82,1,0.62728368715,1,8,2,8,2,12,0.318117194831797,-0.844968114174206,-0.218348731329889
"9081",83,1,0.509212231176,1,7,2,9,2,12,0.806137891448759,-0.844968114174206,-0.218348731329889
"916",84,1,0,0,0,6,2,5,12,-2.61000698486997,2.04289759249713,1.70406944668326
"932",85,1,0.000279210245935,1,12,3,9,1,12,0.806137891448759,-0.123001687506372,-0.859154790667605
"945",86,1,0.15924745673,1,13,5,5,4,12,-1.14594489501909,1.3209311658293,1.06326338734555
"9591",87,1,0.5716372233,1,6,1,7,4,12,-0.169903501785165,-1.56693454084204,1.06326338734555
"966",88,1,0.908584247081,1,14,3,10,1,12,1.29415858806572,-0.123001687506372,-0.859154790667605
"990",90,6,0.0224846161436,1,2,3,9,5,12,0.806137891448759,-0.123001687506372,1.70406944668326
"993",91,1,0.72448776185,1,3,2,8,1,12,0.318117194831797,-0.844968114174206,-0.859154790667605
"997",92,8,0.455845870485,1,5,1,7,1,12,-0.169903501785165,-1.56693454084204,-0.859154790667605
"1003",93,1,0.708351253299,1,14,2,9,1,12,0.806137891448759,-0.844968114174206,-0.859154790667605
"10181",94,1,0.172952651687,1,4,2,9,2,12,0.806137891448759,-0.844968114174206,-0.218348731329889
"1023",95,1,0.701951263138,1,11,5,10,1,12,1.29415858806572,1.3209311658293,-0.859154790667605
"1043",97,1,0,0,0,3,4,5,12,-1.63396559163605,-0.123001687506372,1.70406944668326
"1059",98,10,0.656544100872,1,10,3,9,1,12,0.806137891448759,-0.123001687506372,-0.859154790667605
"1070",99,1,0,0,0,5,1,3,12,-3.09802768148694,1.3209311658293,0.422457328007828
"1086",100,1,0.404172520532,1,8,1,6,1,12,-0.657924198402126,-1.56693454084204,-0.859154790667605
"11011",102,1,0.057005651106,1,6,2,7,2,12,-0.169903501785165,-0.844968114174206,-0.218348731329889
"11081",103,1,0.607753647826,1,15,4,6,2,12,-0.657924198402126,0.598964739161462,-0.218348731329889
"1124",104,2,0.244988893028,1,2,4,9,1,12,0.806137891448759,0.598964739161462,-0.859154790667605
"1127",105,1,0.538722841855,1,6,2,7,4,12,-0.169903501785165,-0.844968114174206,1.06326338734555
"1134",106,1,0.639619113543,1,13,3,3,4,12,-2.12198628825301,-0.123001687506372,1.06326338734555
"11601",108,1,0.441043290557,1,2,2,7,1,12,-0.169903501785165,-0.844968114174206,-0.859154790667605
"11731",110,1,0.544174609473,1,9,4,4,1,12,-1.63396559163605,0.598964739161462,-0.859154790667605
"11831",111,1,0.219835737007,1,12,4,6,3,12,-0.657924198402126,0.598964739161462,0.422457328007828
"1208",113,1,0.891526822612,1,15,6,5,4,12,-1.14594489501909,2.04289759249713,1.06326338734555
"1224",114,1,0.740446094671,1,12,3,7,6,12,-0.169903501785165,-0.123001687506372,2.34487550602098
"1237",115,1,0.80952059124,1,9,2,10,1,12,1.29415858806572,-0.844968114174206,-0.859154790667605
"1247",116,9,0.0285432734818,1,8,2,7,5,12,-0.169903501785165,-0.844968114174206,1.70406944668326
"1269",118,1,0.57794198161,1,9,5,3,2,12,-2.12198628825301,1.3209311658293,-0.218348731329889
"12791",119,1,0.512176023971,1,14,4,6,2,12,-0.657924198402126,0.598964739161462,-0.218348731329889
"12941",120,1,0.518914274944,1,13,1,9,1,12,0.806137891448759,-1.56693454084204,-0.859154790667605
"1308",121,1,0.525344302398,1,11,2,8,1,12,0.318117194831797,-0.844968114174206,-0.859154790667605
"1327",123,1,0.137947948111,1,14,1,6,1,12,-0.657924198402126,-1.56693454084204,-0.859154790667605
"1347",125,9,0.427955566658,1,6,2,7,1,12,-0.169903501785165,-0.844968114174206,-0.859154790667605
"13541",126,1,0,0,0,6,4,6,12,-1.63396559163605,2.04289759249713,2.34487550602098
"13701",127,1,0.455096644975,1,8,2,9,2,12,0.806137891448759,-0.844968114174206,-0.218348731329889
"1379",128,1,0.708818196596,1,11,2,3,2,12,-2.12198628825301,-0.844968114174206,-0.218348731329889
"1391",129,1,0.0259170588688,1,7,5,8,1,12,0.318117194831797,1.3209311658293,-0.859154790667605
"1406",131,1,0.808202363944,1,10,2,7,1,12,-0.169903501785165,-0.844968114174206,-0.859154790667605
"1417",132,1,0.505500236875,1,11,4,5,2,12,-1.14594489501909,0.598964739161462,-0.218348731329889
"1429",133,1,0.689851697723,1,13,3,8,3,12,0.318117194831797,-0.123001687506372,0.422457328007828
"1443",134,1,0.3230250825,1,12,2,8,1,12,0.318117194831797,-0.844968114174206,-0.859154790667605
"68",0,1,0,0,0,4,6,5,13,-1.05760246844464,1.55101192200313,2.15734414538603
"96",2,1,0,0,0,5,3,4,13,-2.33619649745981,2.25601734109546,1.48473107465367
"112",3,1,0.636562819564,1,14,2,9,1,13,0.220991560570523,0.141001083818466,-0.53310813754343
"1361",5,1,0.422400375202,1,15,1,10,1,13,0.647189570242245,-0.564004335273866,-0.53310813754343
"152",6,1,0,0,0,5,1,5,13,-3.18859251680325,2.25601734109546,2.15734414538603
"1681",7,1,0.540910443829,1,6,1,10,1,13,0.647189570242245,-0.564004335273866,-0.53310813754343
"175",8,1,0.805641002531,1,12,1,9,1,13,0.220991560570523,-0.564004335273866,-0.53310813754343
"188",9,1,0.492429920967,1,15,2,9,2,13,0.220991560570523,0.141001083818466,0.139504933188935
"2041",10,1,0.630160781409,1,5,1,10,1,13,0.647189570242245,-0.564004335273866,-0.53310813754343
"230",13,1,0.605016500034,1,12,2,9,1,13,0.220991560570523,0.141001083818466,-0.53310813754343
"2612",16,1,0,0,0,5,1,4,13,-3.18859251680325,2.25601734109546,1.48473107465367
"292",18,1,0.766262460354,1,9,1,10,1,13,0.647189570242245,-0.564004335273866,-0.53310813754343
"3021",19,1,0,0,0,2,8,1,13,-0.205206449101199,0.141001083818466,-0.53310813754343
"3311",21,1,0.879881229834,1,8,1,9,1,13,0.220991560570523,-0.564004335273866,-0.53310813754343
"346",23,1,0,0,0,3,6,6,13,-1.05760246844464,0.846006502910798,2.8299572161184
"362",24,1,0.412790832619,1,7,2,9,1,13,0.220991560570523,0.141001083818466,-0.53310813754343
"3701",25,1,0.282515022045,1,11,2,9,1,13,0.220991560570523,0.141001083818466,-0.53310813754343
"382",26,9,0.0186592993414,1,7,1,9,1,13,0.220991560570523,-0.564004335273866,-0.53310813754343
"390",27,1,0.535258996504,1,9,1,9,1,13,0.220991560570523,-0.564004335273866,-0.53310813754343
"400",28,1,0,0,0,5,1,6,13,-3.18859251680325,2.25601734109546,2.8299572161184
"424",30,1,0,0,0,5,5,2,13,-1.48380047811637,2.25601734109546,0.139504933188935
"440",31,1,0.652074006415,1,14,2,9,1,13,0.220991560570523,0.141001083818466,-0.53310813754343
"455",32,1,0.512729324444,1,15,1,9,1,13,0.220991560570523,-0.564004335273866,-0.53310813754343
"471",33,1,0.1671226873,1,12,1,10,1,13,0.647189570242245,-0.564004335273866,-0.53310813754343
"494",35,1,0.376022803772,1,12,1,10,1,13,0.647189570242245,-0.564004335273866,-0.53310813754343
"507",36,1,0,0,0,2,7,1,13,-0.631404458772922,0.141001083818466,-0.53310813754343
"5231",37,1,0.153553001481,1,13,1,9,1,13,0.220991560570523,-0.564004335273866,-0.53310813754343
"5371",38,1,0.577596552816,1,15,2,7,1,13,-0.631404458772922,0.141001083818466,-0.53310813754343
"5531",39,1,0.282623224557,1,10,1,9,1,13,0.220991560570523,-0.564004335273866,-0.53310813754343
"611",44,1,0.149656346141,1,9,1,10,5,13,0.647189570242245,-0.564004335273866,2.15734414538603
"621",45,1,0.328551602011,1,13,2,7,5,13,-0.631404458772922,0.141001083818466,2.15734414538603
"635",46,1,0,0,0,4,8,5,13,-0.205206449101199,1.55101192200313,2.15734414538603
"661",48,1,0,0,0,2,9,2,13,0.220991560570523,0.141001083818466,0.139504933188935
"677",49,1,0.599856230619,1,11,1,10,1,13,0.647189570242245,-0.564004335273866,-0.53310813754343
"702",51,1,0,0,0,5,2,5,13,-2.76239450713153,2.25601734109546,2.15734414538603
"732",54,1,0,0,0,5,3,4,13,-2.33619649745981,2.25601734109546,1.48473107465367
"7622",57,1,0.460022760075,1,7,1,9,1,13,0.220991560570523,-0.564004335273866,-0.53310813754343
"7701",58,1,0.820913256408,1,15,1,8,3,13,-0.205206449101199,-0.564004335273866,0.812118003921301
"786",59,1,0.209810792396,1,13,1,10,1,13,0.647189570242245,-0.564004335273866,-0.53310813754343
"800",60,1,0.244322952727,1,15,1,9,2,13,0.220991560570523,-0.564004335273866,0.139504933188935
"816",61,1,0.654283795011,1,13,1,9,1,13,0.220991560570523,-0.564004335273866,-0.53310813754343
"8531",64,1,0.488334609909,1,13,1,10,2,13,0.647189570242245,-0.564004335273866,0.139504933188935
"884",67,1,0.220243971038,1,11,1,10,1,13,0.647189570242245,-0.564004335273866,-0.53310813754343
"896",68,1,0,0,0,2,8,2,13,-0.205206449101199,0.141001083818466,0.139504933188935
"912",69,1,0.741917921754,1,9,1,9,1,13,0.220991560570523,-0.564004335273866,-0.53310813754343
"928",71,8,0.590471967706,1,8,1,9,1,13,0.220991560570523,-0.564004335273866,-0.53310813754343
"937",72,1,0,0,0,3,6,5,13,-1.05760246844464,0.846006502910798,2.15734414538603
"9531",73,1,0.872837144649,1,11,1,8,1,13,-0.205206449101199,-0.564004335273866,-0.53310813754343
"965",74,1,0,0,0,1,9,1,13,0.220991560570523,-0.564004335273866,-0.53310813754343
"9971",77,1,0,0,0,4,6,5,13,-1.05760246844464,1.55101192200313,2.15734414538603
"10131",78,1,0.631200139818,1,13,1,9,1,13,0.220991560570523,-0.564004335273866,-0.53310813754343
"10272",79,1,0,0,0,3,7,1,13,-0.631404458772922,0.846006502910798,-0.53310813754343
"1060",82,1,0,0,0,4,5,6,13,-1.48380047811637,1.55101192200313,2.8299572161184
"1076",83,1,0,0,0,4,5,3,13,-1.48380047811637,1.55101192200313,0.812118003921301
"1092",84,1,0.624704917776,1,12,1,9,2,13,0.220991560570523,-0.564004335273866,0.139504933188935
"1111",86,1,0,0,0,2,8,2,13,-0.205206449101199,0.141001083818466,0.139504933188935
"11271",87,1,0,0,0,5,4,2,13,-1.90999848778809,2.25601734109546,0.139504933188935
"1156",89,1,0,0,0,3,6,6,13,-1.05760246844464,0.846006502910798,2.8299572161184
"1172",90,1,0,0,0,6,3,5,13,-2.33619649745981,2.9610227601878,2.15734414538603
"11883",91,1,0,0,0,2,8,1,13,-0.205206449101199,0.141001083818466,-0.53310813754343
"12041",92,1,0,0,0,2,8,1,13,-0.205206449101199,0.141001083818466,-0.53310813754343
"12201",93,1,0,0,0,5,3,5,13,-2.33619649745981,2.25601734109546,2.15734414538603
"12491",95,1,0.725358501848,1,14,1,10,1,13,0.647189570242245,-0.564004335273866,-0.53310813754343
"12641",96,1,0.65601674169,1,14,1,10,1,13,0.647189570242245,-0.564004335273866,-0.53310813754343
"12792",97,1,0.257548233742,1,3,2,8,5,13,-0.205206449101199,0.141001083818466,2.15734414538603
"1283",98,8,0.839020279265,1,7,1,9,2,13,0.220991560570523,-0.564004335273866,0.139504933188935
"12912",99,1,0.392441253221,1,15,1,9,3,13,0.220991560570523,-0.564004335273866,0.812118003921301
"1307",100,1,0,0,0,4,7,1,13,-0.631404458772922,1.55101192200313,-0.53310813754343
"1323",101,1,0.756521845979,1,11,1,9,5,13,0.220991560570523,-0.564004335273866,2.15734414538603
"1335",102,1,0,0,0,6,2,1,13,-2.76239450713153,2.9610227601878,-0.53310813754343
"1351",103,10,0.76244328756,1,7,1,10,1,13,0.647189570242245,-0.564004335273866,-0.53310813754343
"1359",104,1,0.790668438858,1,15,1,10,1,13,0.647189570242245,-0.564004335273866,-0.53310813754343
"13911",107,1,0.906672783341,1,10,1,10,1,13,0.647189570242245,-0.564004335273866,-0.53310813754343
"1402",108,1,0.489599589302,1,15,1,10,1,13,0.647189570242245,-0.564004335273866,-0.53310813754343
"1418",109,1,0.792751593006,1,15,1,10,1,13,0.647189570242245,-0.564004335273866,-0.53310813754343
"1434",110,1,0.739302971095,1,12,1,8,1,13,-0.205206449101199,-0.564004335273866,-0.53310813754343
"1461",113,1,0.774159194887,1,14,1,10,1,13,0.647189570242245,-0.564004335273866,-0.53310813754343
"1476",114,1,0,0,0,3,6,4,13,-1.05760246844464,0.846006502910798,1.48473107465367
"1492",115,1,0,0,0,1,10,1,13,0.647189570242245,-0.564004335273866,-0.53310813754343
"1508",116,1,0.66328610653,1,13,1,10,1,13,0.647189570242245,-0.564004335273866,-0.53310813754343
"1522",117,1,0,0,0,1,9,1,13,0.220991560570523,-0.564004335273866,-0.53310813754343
"1538",118,1,0.257002101251,1,14,1,10,1,13,0.647189570242245,-0.564004335273866,-0.53310813754343
"1574",121,1,0,0,0,3,5,1,13,-1.48380047811637,0.846006502910798,-0.53310813754343
"1590",122,1,0.262381164983,1,15,1,10,4,13,0.647189570242245,-0.564004335273866,1.48473107465367
"1606",123,1,0,0,0,5,2,5,13,-2.76239450713153,2.25601734109546,2.15734414538603
"1622",124,1,0.771177994131,1,14,1,9,1,13,0.220991560570523,-0.564004335273866,-0.53310813754343
"1637",125,1,0.292615401209,1,15,1,10,1,13,0.647189570242245,-0.564004335273866,-0.53310813754343
"1653",126,1,0.0244169011567,1,3,1,10,1,13,0.647189570242245,-0.564004335273866,-0.53310813754343
"1657",127,1,0,0,0,6,2,3,13,-2.76239450713153,2.9610227601878,0.812118003921301
"1673",128,1,0,0,0,2,8,1,13,-0.205206449101199,0.141001083818466,-0.53310813754343
"1689",129,1,0,0,0,2,8,2,13,-0.205206449101199,0.141001083818466,0.139504933188935
"1719",131,1,0.204220443644,1,15,1,10,1,13,0.647189570242245,-0.564004335273866,-0.53310813754343
"1735",132,1,0.856584582958,1,11,1,9,1,13,0.220991560570523,-0.564004335273866,-0.53310813754343
"1747",133,1,0.374881386844,1,14,1,9,2,13,0.220991560570523,-0.564004335273866,0.139504933188935
"28",0,1,0.399112602958,1,5,4,8,5,14,0.390255354387852,0.258828267281896,2.38343153628007
"34",1,1,0.0419917861582,1,5,4,7,1,14,-0.00586850156974224,0.258828267281896,-0.548352130214777
"40",2,1,0.102627511689,1,7,5,7,2,14,-0.00586850156974224,0.79639466855968,0.184593786408935
"481",3,1,0.327139849513,1,11,6,6,3,14,-0.401992357527337,1.33396106983746,0.917539703032647
"601",4,1,0.944609194412,1,13,6,7,1,14,-0.00586850156974224,1.33396106983746,-0.548352130214777
"744",5,1,0.548685322574,1,3,3,7,1,14,-0.00586850156974224,-0.278738133995888,-0.548352130214777
"78",6,1,0.429237612698,1,13,2,9,6,14,0.786379210345447,-0.816304535273672,3.11637745290378
"1121",9,1,0,0,0,6,1,4,14,-2.38261163731531,1.33396106983746,1.65048561965636
"1281",10,5,0.944369237433,1,4,2,8,1,14,0.390255354387852,-0.816304535273672,-0.548352130214777
"1392",12,1,0.882684596203,1,7,1,9,1,14,0.786379210345447,-1.35387093655146,-0.548352130214777
"1473",13,1,0.541553514835,1,6,3,8,1,14,0.390255354387852,-0.278738133995888,-0.548352130214777
"1542",14,1,0.181704424904,1,7,1,10,1,14,1.18250306630304,-1.35387093655146,-0.548352130214777
"162",15,1,0.180649023852,1,7,4,7,4,14,-0.00586850156974224,0.258828267281896,1.65048561965636
"1701",16,1,0.204324550141,1,13,3,8,1,14,0.390255354387852,-0.278738133995888,-0.548352130214777
"189",18,1,0.187760351604,1,4,4,7,5,14,-0.00586850156974224,0.258828267281896,2.38343153628007
"203",20,1,0.933204923931,1,8,4,8,1,14,0.390255354387852,0.258828267281896,-0.548352130214777
"2121",21,1,0.269710263063,1,10,3,7,2,14,-0.00586850156974224,-0.278738133995888,0.184593786408935
"223",22,1,0.0506602741953,1,2,2,9,1,14,0.786379210345447,-0.816304535273672,-0.548352130214777
"2351",24,10,0.915844395931,1,7,3,7,1,14,-0.00586850156974224,-0.278738133995888,-0.548352130214777
"251",26,1,0.914130563906,1,6,2,7,1,14,-0.00586850156974224,-0.816304535273672,-0.548352130214777
"258",27,1,0.108423684142,1,10,1,10,1,14,1.18250306630304,-1.35387093655146,-0.548352130214777
"276",29,1,0.930469482788,1,9,4,6,1,14,-0.401992357527337,0.258828267281896,-0.548352130214777
"295",31,1,0.561873398314,1,14,4,7,1,14,-0.00586850156974224,0.258828267281896,-0.548352130214777
"3101",32,1,0,0,0,6,1,1,14,-2.38261163731531,1.33396106983746,-0.548352130214777
"326",33,1,0.779021822091,1,3,2,8,1,14,0.390255354387852,-0.816304535273672,-0.548352130214777
"330",34,1,0.132020703895,1,8,2,9,1,14,0.786379210345447,-0.816304535273672,-0.548352130214777
"3461",36,1,0.360678528668,1,5,4,6,1,14,-0.401992357527337,0.258828267281896,-0.548352130214777
"3781",40,1,0.644612129865,1,7,6,4,1,14,-1.19424006944253,1.33396106983746,-0.548352130214777
"3861",41,1,0.0510517829098,1,10,3,8,1,14,0.390255354387852,-0.278738133995888,-0.548352130214777
"397",42,1,0.4805535872,1,7,5,7,1,14,-0.00586850156974224,0.79639466855968,-0.548352130214777
"405",43,1,0.564082162891,1,11,5,6,1,14,-0.401992357527337,0.79639466855968,-0.548352130214777
"417",44,1,0.0286702493031,1,10,4,6,1,14,-0.401992357527337,0.258828267281896,-0.548352130214777
"433",46,1,0.716432648886,1,8,6,6,5,14,-0.401992357527337,1.33396106983746,2.38343153628007
"442",47,1,0.370329031168,1,8,6,6,1,14,-0.401992357527337,1.33396106983746,-0.548352130214777
"4511",48,1,0.356490033766,1,12,6,6,1,14,-0.401992357527337,1.33396106983746,-0.548352130214777
"464",49,1,0.798076726147,1,14,6,9,1,14,0.786379210345447,1.33396106983746,-0.548352130214777
"479",50,1,0.610665216664,1,8,3,9,1,14,0.786379210345447,-0.278738133995888,-0.548352130214777
"496",52,10,0.291700287955,1,6,5,7,1,14,-0.00586850156974224,0.79639466855968,-0.548352130214777
"517",54,1,0.42525664813,1,3,1,10,3,14,1.18250306630304,-1.35387093655146,0.917539703032647
"526",56,1,0.295319439698,1,3,2,8,1,14,0.390255354387852,-0.816304535273672,-0.548352130214777
"535",58,1,0.155930384499,1,7,4,7,1,14,-0.00586850156974224,0.258828267281896,-0.548352130214777
"543",59,1,0.15950413901,1,8,5,9,1,14,0.786379210345447,0.79639466855968,-0.548352130214777
"5521",60,1,0.667479038733,1,13,6,7,1,14,-0.00586850156974224,1.33396106983746,-0.548352130214777
"566",61,1,0.17814125173,1,10,6,6,1,14,-0.401992357527337,1.33396106983746,-0.548352130214777
"577",62,1,0.363462780369,1,2,1,10,1,14,1.18250306630304,-1.35387093655146,-0.548352130214777
"5911",64,1,0,0,0,6,2,1,14,-1.98648778135772,1.33396106983746,-0.548352130214777
"625",67,1,0.828611335251,1,5,1,9,1,14,0.786379210345447,-1.35387093655146,-0.548352130214777
"6311",68,9,0.146308895259,1,6,2,8,1,14,0.390255354387852,-0.816304535273672,-0.548352130214777
"638",69,1,0.610207830701,1,4,4,9,1,14,0.786379210345447,0.258828267281896,-0.548352130214777
"6431",70,1,0.805614037236,1,6,1,10,5,14,1.18250306630304,-1.35387093655146,2.38343153628007
"6501",71,1,0.859120003035,1,13,3,8,1,14,0.390255354387852,-0.278738133995888,-0.548352130214777
"664",72,1,0.412654640822,1,13,1,10,1,14,1.18250306630304,-1.35387093655146,-0.548352130214777
"678",73,1,0.329163270391,1,11,1,10,1,14,1.18250306630304,-1.35387093655146,-0.548352130214777
"6902",74,1,0.16223514278,1,5,2,10,1,14,1.18250306630304,-0.816304535273672,-0.548352130214777
"706",76,1,0.743924617331,1,12,6,6,5,14,-0.401992357527337,1.33396106983746,2.38343153628007
"719",77,1,0,0,0,6,2,2,14,-1.98648778135772,1.33396106983746,0.184593786408935
"735",78,1,0,0,0,6,3,3,14,-1.59036392540012,1.33396106983746,0.917539703032647
"751",79,3,0.321587388695,1,2,1,9,1,14,0.786379210345447,-1.35387093655146,-0.548352130214777
"7541",80,1,0.271805705153,1,11,1,9,3,14,0.786379210345447,-1.35387093655146,0.917539703032647
"766",81,1,0.539979629248,1,14,1,8,1,14,0.390255354387852,-1.35387093655146,-0.548352130214777
"7812",82,1,0.897339720366,1,10,3,8,1,14,0.390255354387852,-0.278738133995888,-0.548352130214777
"805",84,1,0.331013976916,1,8,2,9,2,14,0.786379210345447,-0.816304535273672,0.184593786408935
"859",89,1,0.710696551017,1,7,4,10,1,14,1.18250306630304,0.258828267281896,-0.548352130214777
"8671",90,1,0.245681798639,1,8,5,10,1,14,1.18250306630304,0.79639466855968,-0.548352130214777
"876",91,1,0.55888127489,1,14,5,10,1,14,1.18250306630304,0.79639466855968,-0.548352130214777
"891",92,1,0.643658446003,1,9,2,9,1,14,0.786379210345447,-0.816304535273672,-0.548352130214777
"9011",93,1,0.925898353831,1,12,3,9,1,14,0.786379210345447,-0.278738133995888,-0.548352130214777
"914",94,1,0.612944637192,1,13,3,9,1,14,0.786379210345447,-0.278738133995888,-0.548352130214777
"9281",95,1,0.359990060388,1,14,3,9,1,14,0.786379210345447,-0.278738133995888,-0.548352130214777
"943",96,1,0.0929244439467,1,15,6,8,1,14,0.390255354387852,1.33396106983746,-0.548352130214777
"9592",97,1,0.795989817387,1,15,6,10,1,14,1.18250306630304,1.33396106983746,-0.548352130214777
"981",99,1,0.0266161084583,1,14,3,8,1,14,0.390255354387852,-0.278738133995888,-0.548352130214777
"996",100,1,0.926092230831,1,10,4,8,1,14,0.390255354387852,0.258828267281896,-0.548352130214777
"1007",101,1,0,0,0,6,2,4,14,-1.98648778135772,1.33396106983746,1.65048561965636
"10231",102,1,0.377764625067,1,8,4,8,1,14,0.390255354387852,0.258828267281896,-0.548352130214777
"1040",104,1,0.56152865215,1,7,6,6,2,14,-0.401992357527337,1.33396106983746,0.184593786408935
"1048",105,1,0.646807923855,1,6,4,7,1,14,-0.00586850156974224,0.258828267281896,-0.548352130214777
"1055",106,10,0.610566230171,1,6,4,6,1,14,-0.401992357527337,0.258828267281896,-0.548352130214777
"1062",107,1,0.579780741449,1,13,1,10,1,14,1.18250306630304,-1.35387093655146,-0.548352130214777
"10761",108,1,0.0801009116403,1,9,1,10,1,14,1.18250306630304,-1.35387093655146,-0.548352130214777
"10861",109,1,0,0,0,6,1,1,14,-2.38261163731531,1.33396106983746,-0.548352130214777
"11082",111,1,0.213209443173,1,8,3,7,1,14,-0.00586850156974224,-0.278738133995888,-0.548352130214777
"11171",112,1,0.928708888183,1,4,4,8,3,14,0.390255354387852,0.258828267281896,0.917539703032647
"11222",113,1,0.276957099908,1,5,3,8,1,14,0.390255354387852,-0.278738133995888,-0.548352130214777
"1128",114,1,0,0,0,6,1,6,14,-2.38261163731531,1.33396106983746,3.11637745290378
"1144",115,1,0.695150548272,1,2,1,9,1,14,0.786379210345447,-1.35387093655146,-0.548352130214777
"1147",116,8,0.562585418549,1,2,2,8,2,14,0.390255354387852,-0.816304535273672,0.184593786408935
"1150",117,1,0.345991660579,1,5,2,8,4,14,0.390255354387852,-0.816304535273672,1.65048561965636
"1163",119,1,0.543900177901,1,5,3,8,1,14,0.390255354387852,-0.278738133995888,-0.548352130214777
"1169",120,1,0.731042375788,1,10,2,9,1,14,0.786379210345447,-0.816304535273672,-0.548352130214777
"1180",121,1,0.818268951145,1,12,1,9,1,14,0.786379210345447,-1.35387093655146,-0.548352130214777
"1193",122,1,0.344143684721,1,5,3,10,1,14,1.18250306630304,-0.278738133995888,-0.548352130214777
"1223",126,1,0.462538724212,1,14,1,9,1,14,0.786379210345447,-1.35387093655146,-0.548352130214777
"1238",127,9,0.845364632201,1,5,1,10,1,14,1.18250306630304,-1.35387093655146,-0.548352130214777
"1244",128,1,0.941865219967,1,12,1,10,1,14,1.18250306630304,-1.35387093655146,-0.548352130214777
"12571",129,4,0.696443516907,1,2,2,9,1,14,0.786379210345447,-0.816304535273672,-0.548352130214777
"1260",130,1,0.356485596451,1,15,1,10,1,14,1.18250306630304,-1.35387093655146,-0.548352130214777
"1276",131,1,0.730423880741,1,4,1,9,1,14,0.786379210345447,-1.35387093655146,-0.548352130214777
"1292",133,1,0.626238526078,1,14,2,7,1,14,-0.00586850156974224,-0.816304535273672,-0.548352130214777
"13071",134,7,0.577386633115,1,3,1,10,1,14,1.18250306630304,-1.35387093655146,-0.548352130214777
"745",0,6,0.370063815586,1,6,1,10,1,15,1.78851219923329,-1.13904703115502,-1.15604894289689
"811",1,1,0.367277857207,1,14,1,1,6,15,-1.57013126609662,-1.13904703115502,2.06846773667088
"104",3,1,0.387160834653,1,7,1,10,1,15,1.78851219923329,-1.13904703115502,-1.15604894289689
"1126",4,1,0.11201860127,1,4,3,8,6,15,1.04214698471554,0.284761757788754,2.06846773667088
"117",5,2,0.413613786019,1,2,1,10,1,15,1.78851219923329,-1.13904703115502,-1.15604894289689
"1352",8,1,0.386307161301,1,14,6,0,6,15,-1.9433138733555,2.42047494120441,2.06846773667088
"150",9,1,0.177568495244,1,13,6,6,2,15,0.295781770197778,2.42047494120441,-0.511145606983335
"164",10,1,0.217802417435,1,4,3,3,5,15,-0.823766051578858,0.284761757788754,1.42356440075733
"169",11,1,0.86529130023,1,13,3,9,2,15,1.41532959197441,0.284761757788754,-0.511145606983335
"1831",12,6,0.101111311378,1,5,5,8,6,15,1.04214698471554,1.70857054673252,2.06846773667088
"1891",13,1,0.398571931815,1,7,4,8,5,15,1.04214698471554,0.996666152260639,1.42356440075733
"197",14,1,0.890910375572,1,6,4,9,6,15,1.41532959197441,0.996666152260639,2.06846773667088
"2042",15,1,0.533117815794,1,4,6,2,5,15,-1.19694865883774,2.42047494120441,1.42356440075733
"2091",16,1,0,0,0,5,8,3,15,1.04214698471554,1.70857054673252,0.133757728930218
"225",17,7,0.214596961043,1,2,2,10,6,15,1.78851219923329,-0.427142636683131,2.06846773667088
"228",18,1,0.155036433862,1,7,6,2,6,15,-1.19694865883774,2.42047494120441,2.06846773667088
"236",19,5,0.249879509502,1,4,3,8,5,15,1.04214698471554,0.284761757788754,1.42356440075733
"241",20,1,0.548127584741,1,8,6,1,1,15,-1.57013126609662,2.42047494120441,-1.15604894289689
"250",21,1,0.416184363421,1,10,4,8,6,15,1.04214698471554,0.996666152260639,2.06846773667088
"2613",22,1,0,0,0,6,9,4,15,1.41532959197441,2.42047494120441,0.778661064843772
"2771",23,1,0,0,0,4,7,6,15,0.668964377456657,0.996666152260639,2.06846773667088
"304",25,1,0.0818942742189,1,11,1,10,6,15,1.78851219923329,-1.13904703115502,2.06846773667088
"337",28,1,0.389778857323,1,13,1,10,6,15,1.78851219923329,-1.13904703115502,2.06846773667088
"359",30,1,0.831282947154,1,9,1,10,1,15,1.78851219923329,-1.13904703115502,-1.15604894289689
"369",31,1,0.715108960256,1,13,2,9,2,15,1.41532959197441,-0.427142636683131,-0.511145606983335
"383",32,1,0.262377751642,1,9,5,4,5,15,-0.45058344431998,1.70857054673252,1.42356440075733
"393",33,1,0.85100925283,1,15,4,8,4,15,1.04214698471554,0.996666152260639,0.778661064843772
"425",36,1,0.117644107289,1,13,3,8,1,15,1.04214698471554,0.284761757788754,-1.15604894289689
"445",38,1,0,0,0,3,6,3,15,0.295781770197778,0.284761757788754,0.133757728930218
"461",39,1,0.52025537155,1,10,3,8,1,15,1.04214698471554,0.284761757788754,-1.15604894289689
"472",40,1,0,0,0,5,4,5,15,-0.45058344431998,1.70857054673252,1.42356440075733
"488",41,1,0.0867063841433,1,5,2,9,2,15,1.41532959197441,-0.427142636683131,-0.511145606983335
"4941",42,1,0,0,0,5,3,4,15,-0.823766051578858,1.70857054673252,0.778661064843772
"510",43,1,0.117835936311,1,15,3,9,1,15,1.41532959197441,0.284761757788754,-1.15604894289689
"5261",44,1,0.744102451717,1,5,1,6,5,15,0.295781770197778,-1.13904703115502,1.42356440075733
"532",45,6,0.828710321803,1,1,3,3,2,15,-0.823766051578858,0.284761757788754,-0.511145606983335
"534",46,1,0.213509133377,1,5,1,5,1,15,-0.0774008370611007,-1.13904703115502,-1.15604894289689
"540",47,1,0.296003470663,1,2,2,3,3,15,-0.823766051578858,-0.427142636683131,0.133757728930218
"5431",48,1,0.245801265119,1,8,5,6,1,15,0.295781770197778,1.70857054673252,-1.15604894289689
"5522",49,2,0.729511498124,1,2,1,4,1,15,-0.45058344431998,-1.13904703115502,-1.15604894289689
"555",50,1,0.620633841376,1,14,3,6,2,15,0.295781770197778,0.284761757788754,-0.511145606983335
"570",51,1,0.667660286475,1,14,1,9,4,15,1.41532959197441,-1.13904703115502,0.778661064843772
"585",52,1,0.195048489724,1,6,3,3,1,15,-0.823766051578858,0.284761757788754,-1.15604894289689
"592",53,2,0.126332051295,1,2,1,8,6,15,1.04214698471554,-1.13904703115502,2.06846773667088
"595",54,1,0.416081622243,1,8,2,7,2,15,0.668964377456657,-0.427142636683131,-0.511145606983335
"6041",55,1,0.796965687885,1,3,2,3,2,15,-0.823766051578858,-0.427142636683131,-0.511145606983335
"6081",56,10,0.632262708794,1,9,2,3,3,15,-0.823766051578858,-0.427142636683131,0.133757728930218
"618",57,1,0.936571148108,1,4,1,6,2,15,0.295781770197778,-1.13904703115502,-0.511145606983335
"6231",58,1,0.317421421758,1,2,5,3,5,15,-0.823766051578858,1.70857054673252,1.42356440075733
"626",59,1,0.316322671482,1,4,2,3,2,15,-0.823766051578858,-0.427142636683131,-0.511145606983335
"6312",60,1,0.114549584046,1,9,2,3,2,15,-0.823766051578858,-0.427142636683131,-0.511145606983335
"6412",61,1,0.648691056937,1,10,2,3,2,15,-0.823766051578858,-0.427142636683131,-0.511145606983335
"652",62,1,0.874618901929,1,1,1,3,2,15,-0.823766051578858,-1.13904703115502,-0.511145606983335
"654",63,1,0.569493311923,1,7,3,7,2,15,0.668964377456657,0.284761757788754,-0.511145606983335
"6621",64,1,0,0,0,1,4,2,15,-0.45058344431998,-1.13904703115502,-0.511145606983335
"6781",65,1,0.701389088004,1,11,2,4,3,15,-0.45058344431998,-0.427142636683131,0.133757728930218
"6903",66,1,0.717256626289,1,6,2,7,2,15,0.668964377456657,-0.427142636683131,-0.511145606983335
"697",67,1,0.317965847556,1,5,4,3,2,15,-0.823766051578858,0.996666152260639,-0.511145606983335
"703",68,1,0.25120353949,1,2,3,3,1,15,-0.823766051578858,0.284761757788754,-1.15604894289689
"7061",69,1,0.829743536189,1,6,2,7,2,15,0.668964377456657,-0.427142636683131,-0.511145606983335
"713",70,1,0.736291391717,1,15,3,3,3,15,-0.823766051578858,0.284761757788754,0.133757728930218
"7293",71,1,0.319539050513,1,12,2,7,2,15,0.668964377456657,-0.427142636683131,-0.511145606983335
"7421",72,1,0.350290064642,1,7,5,7,2,15,0.668964377456657,1.70857054673252,-0.511145606983335
"750",73,1,0.448652281542,1,8,4,8,3,15,1.04214698471554,0.996666152260639,0.133757728930218
"759",74,5,0.334529704822,1,2,1,4,1,15,-0.45058344431998,-1.13904703115502,-1.15604894289689
"7623",75,7,0.603693494049,1,4,1,6,1,15,0.295781770197778,-1.13904703115502,-1.15604894289689
"7672",76,1,0.802323247655,1,2,1,4,1,15,-0.45058344431998,-1.13904703115502,-1.15604894289689
"7832",78,1,0.0563052361831,1,3,2,3,1,15,-0.823766051578858,-0.427142636683131,-1.15604894289689
"787",79,1,0.715769780567,1,1,2,6,1,15,0.295781770197778,-0.427142636683131,-1.15604894289689
"789",80,8,0.193468118785,1,2,1,4,2,15,-0.45058344431998,-1.13904703115502,-0.511145606983335
"792",81,1,0.825559819932,1,2,1,4,2,15,-0.45058344431998,-1.13904703115502,-0.511145606983335
"795",82,8,0.787749701994,1,3,3,7,2,15,0.668964377456657,0.284761757788754,-0.511145606983335
"806",84,1,0.828089437389,1,6,3,7,2,15,0.668964377456657,0.284761757788754,-0.511145606983335
"813",85,9,0.479842932313,1,9,2,3,2,15,-0.823766051578858,-0.427142636683131,-0.511145606983335
"8281",87,1,0.409775157226,1,12,1,4,1,15,-0.45058344431998,-1.13904703115502,-1.15604894289689
"841",88,1,0.341874504229,1,10,3,3,3,15,-0.823766051578858,0.284761757788754,0.133757728930218
"852",89,1,0.196382418333,1,14,3,3,2,15,-0.823766051578858,0.284761757788754,-0.511145606983335
"8672",90,1,0.277497771138,1,6,2,3,1,15,-0.823766051578858,-0.427142636683131,-1.15604894289689
"874",91,1,0.941852249263,1,4,2,3,2,15,-0.823766051578858,-0.427142636683131,-0.511145606983335
"8791",92,1,0.775060313521,1,6,1,6,1,15,0.295781770197778,-1.13904703115502,-1.15604894289689
"900",95,7,0.874198379926,1,5,2,3,3,15,-0.823766051578858,-0.427142636683131,0.133757728930218
"906",96,9,0.932701799378,1,9,4,4,3,15,-0.45058344431998,0.996666152260639,0.133757728930218
"9161",97,1,0.877074791468,1,6,2,7,2,15,0.668964377456657,-0.427142636683131,-0.511145606983335
"923",98,1,0.627860880923,1,4,2,6,2,15,0.295781770197778,-0.427142636683131,-0.511145606983335
"9411",100,1,0.794779792544,1,5,2,3,2,15,-0.823766051578858,-0.427142636683131,-0.511145606983335
"947",101,1,0.649124208314,1,2,2,3,3,15,-0.823766051578858,-0.427142636683131,0.133757728930218
"950",102,1,0.565329734352,1,4,2,3,3,15,-0.823766051578858,-0.427142636683131,0.133757728930218
"955",103,1,0.500658089644,1,9,4,7,2,15,0.668964377456657,0.996666152260639,-0.511145606983335
"9651",104,3,0.023495985195,1,2,3,7,3,15,0.668964377456657,0.284761757788754,0.133757728930218
"968",105,10,0.0109397165361,1,9,3,3,1,15,-0.823766051578858,0.284761757788754,-1.15604894289689
"9781",106,1,0.711397307285,1,8,2,4,2,15,-0.45058344431998,-0.427142636683131,-0.511145606983335
"987",107,1,0.308910970867,1,8,1,4,3,15,-0.45058344431998,-1.13904703115502,0.133757728930218
"9961",108,1,0.377762918419,1,2,3,3,3,15,-0.823766051578858,0.284761757788754,0.133757728930218
"999",109,1,0.529405138863,1,9,3,3,2,15,-0.823766051578858,0.284761757788754,-0.511145606983335
"10091",110,1,0.820573971607,1,1,3,3,3,15,-0.823766051578858,0.284761757788754,0.133757728930218
"10111",111,1,0.628224741668,1,3,2,3,2,15,-0.823766051578858,-0.427142636683131,-0.511145606983335
"1015",112,9,0.261645251419,1,2,3,3,4,15,-0.823766051578858,0.284761757788754,0.778661064843772
"10182",113,1,0.72413823707,1,4,2,3,2,15,-0.823766051578858,-0.427142636683131,-0.511145606983335
"1035",115,1,0.856936838361,1,10,1,5,5,15,-0.0774008370611007,-1.13904703115502,1.42356440075733
"1046",116,1,0.0613252177718,1,2,3,3,3,15,-0.823766051578858,0.284761757788754,0.133757728930218
"1049",117,8,0.345713474322,1,2,4,7,2,15,0.668964377456657,0.996666152260639,-0.511145606983335
"10521",118,1,0.410882782191,1,10,3,3,4,15,-0.823766051578858,0.284761757788754,0.778661064843772
"1063",119,1,0.573984568997,1,2,5,8,4,15,1.04214698471554,1.70857054673252,0.778661064843772
"10663",120,1,0.755373602442,1,1,4,3,5,15,-0.823766051578858,0.996666152260639,1.42356440075733
"1068",121,1,0.0982103238348,1,5,3,2,3,15,-1.19694865883774,0.284761757788754,0.133757728930218
"1074",122,1,0.359762050095,1,4,4,3,3,15,-0.823766051578858,0.996666152260639,0.133757728930218
"1079",123,1,0.206381421653,1,2,3,3,3,15,-0.823766051578858,0.284761757788754,0.133757728930218
"1082",124,1,0.102472887898,1,13,3,3,3,15,-0.823766051578858,0.284761757788754,0.133757728930218
"1096",125,8,0.827548424888,1,4,4,2,3,15,-1.19694865883774,0.996666152260639,0.133757728930218
"11012",126,9,0.324837901047,1,7,2,3,3,15,-0.823766051578858,-0.427142636683131,0.133757728930218
"1109",127,1,0.724585383025,1,2,2,3,2,15,-0.823766051578858,-0.427142636683131,-0.511145606983335
"11241",129,1,0.0932896700688,1,2,3,2,4,15,-1.19694865883774,0.284761757788754,0.778661064843772
"11361",131,10,0.111270058434,1,8,3,2,3,15,-1.19694865883774,0.284761757788754,0.133757728930218
"55",0,1,0.146710643952,1,11,4,8,1,16,-0.266865538735468,0.342846699924504,-0.632644409305927
"671",1,1,0.368077258638,1,13,6,9,4,16,0.172486262841217,1.48566903300618,1.07549549582008
"97",3,1,0.556632232969,1,8,3,9,1,16,0.172486262841217,-0.228564466616336,-0.632644409305927
"106",4,1,0.562241355015,1,5,2,10,1,16,0.611838064417902,-0.799975633157176,-0.632644409305927
"11210",5,1,0.151455511397,1,10,5,7,6,16,-0.706217340312153,0.914257866465344,2.21425543257074
"123",6,1,0,0,0,6,2,4,16,-2.90297634819558,1.48566903300618,1.07549549582008
"1393",7,1,0.486373311607,1,10,3,8,2,16,-0.266865538735468,-0.228564466616336,-0.0632644409305927
"1501",8,1,0.117987829435,1,13,3,10,1,16,0.611838064417902,-0.228564466616336,-0.632644409305927
"1741",10,1,0.000163157063071,1,15,6,7,2,16,-0.706217340312153,1.48566903300618,-0.0632644409305927
"1901",11,1,0.787490289076,1,14,6,10,1,16,0.611838064417902,1.48566903300618,-0.632644409305927
"2051",12,1,0.652151147602,1,12,4,10,1,16,0.611838064417902,0.342846699924504,-0.632644409305927
"218",13,1,0.0815665946575,1,3,1,10,1,16,0.611838064417902,-1.37138679969802,-0.632644409305927
"222",14,1,0.0657744909404,1,12,5,10,1,16,0.611838064417902,0.914257866465344,-0.632644409305927
"2352",15,8,0.511548312905,1,3,1,10,1,16,0.611838064417902,-1.37138679969802,-0.632644409305927
"239",16,8,0.701054581848,1,4,2,10,1,16,0.611838064417902,-0.799975633157176,-0.632644409305927
"244",17,1,0.0849727548193,1,11,3,10,1,16,0.611838064417902,-0.228564466616336,-0.632644409305927
"256",18,1,0,0,0,6,4,6,16,-2.02427274504221,1.48566903300618,2.21425543257074
"272",19,1,0.750771070831,1,11,2,10,1,16,0.611838064417902,-0.799975633157176,-0.632644409305927
"284",20,1,0.469008687651,1,11,2,8,6,16,-0.266865538735468,-0.799975633157176,2.21425543257074
"2962",21,1,0.0846136726905,1,2,1,10,1,16,0.611838064417902,-1.37138679969802,-0.632644409305927
"2991",22,1,0.768807437795,1,4,2,10,5,16,0.611838064417902,-0.799975633157176,1.64487546419541
"3041",23,1,0.183903632162,1,6,3,10,4,16,0.611838064417902,-0.228564466616336,1.07549549582008
"311",24,1,0.332904619339,1,6,2,10,1,16,0.611838064417902,-0.799975633157176,-0.632644409305927
"318",25,1,0,0,0,6,2,6,16,-2.90297634819558,1.48566903300618,2.21425543257074
"334",26,1,0.272518408077,1,7,2,9,1,16,0.172486262841217,-0.799975633157176,-0.632644409305927
"342",27,7,0.516737254278,1,5,2,10,1,16,0.611838064417902,-0.799975633157176,-0.632644409305927
"3481",28,1,0.250847870717,1,12,5,5,5,16,-1.58492094346552,0.914257866465344,1.64487546419541
"3611",29,1,0,0,0,5,7,2,16,-0.706217340312153,0.914257866465344,-0.0632644409305927
"377",30,7,0.16599321703,1,3,1,10,5,16,0.611838064417902,-1.37138679969802,1.64487546419541
"3901",32,1,0,0,0,6,3,6,16,-2.46362454661889,1.48566903300618,2.21425543257074
"4061",33,9,0.733671321126,1,9,5,6,4,16,-1.14556914188884,0.914257866465344,1.07549549582008
"416",34,9,0.517104528379,1,7,3,10,1,16,0.611838064417902,-0.228564466616336,-0.632644409305927
"4541",38,1,0.0807627559407,1,8,4,8,4,16,-0.266865538735468,0.342846699924504,1.07549549582008
"477",40,1,0,0,0,6,2,6,16,-2.90297634819558,1.48566903300618,2.21425543257074
"506",42,1,0.754313422716,1,13,6,7,1,16,-0.706217340312153,1.48566903300618,-0.632644409305927
"525",44,1,0.0688748168759,1,11,5,10,1,16,0.611838064417902,0.914257866465344,-0.632644409305927
"5372",45,1,0.346876395168,1,7,4,9,5,16,0.172486262841217,0.342846699924504,1.64487546419541
"5523",47,1,0.0286610333133,1,14,5,10,1,16,0.611838064417902,0.914257866465344,-0.632644409305927
"575",49,1,0.852427149366,1,6,2,10,1,16,0.611838064417902,-0.799975633157176,-0.632644409305927
"582",50,1,0.000683006946929,1,9,2,10,1,16,0.611838064417902,-0.799975633157176,-0.632644409305927
"5921",51,1,0.769516044704,1,11,3,10,1,16,0.611838064417902,-0.228564466616336,-0.632644409305927
"6042",52,1,0,0,0,6,0,6,16,-3.78167995134895,1.48566903300618,2.21425543257074
"6202",53,1,0,0,0,6,6,2,16,-1.14556914188884,1.48566903300618,-0.0632644409305927
"6491",55,1,0.916413739033,1,4,2,10,1,16,0.611838064417902,-0.799975633157176,-0.632644409305927
"6541",56,8,0.931702718197,1,7,2,10,1,16,0.611838064417902,-0.799975633157176,-0.632644409305927
"6761",59,1,0.57084703783,1,14,6,4,5,16,-2.02427274504221,1.48566903300618,1.64487546419541
"6911",60,1,0.322742800287,1,14,3,10,1,16,0.611838064417902,-0.228564466616336,-0.632644409305927
"715",62,1,0.484774508688,1,13,2,10,1,16,0.611838064417902,-0.799975633157176,-0.632644409305927
"7411",64,9,0.886439257127,1,9,3,10,5,16,0.611838064417902,-0.228564466616336,1.64487546419541
"7511",65,1,0.049482334638,1,15,4,10,1,16,0.611838064417902,0.342846699924504,-0.632644409305927
"7673",66,1,0.214484321186,1,15,5,10,1,16,0.611838064417902,0.914257866465344,-0.632644409305927
"7932",68,1,0.802128346579,1,10,3,10,1,16,0.611838064417902,-0.228564466616336,-0.632644409305927
"8042",69,1,0.556550654466,1,9,3,8,1,16,-0.266865538735468,-0.228564466616336,-0.632644409305927
"8201",71,1,0.129880888504,1,15,6,10,1,16,0.611838064417902,1.48566903300618,-0.632644409305927
"8361",72,1,0.620095559512,1,13,6,6,3,16,-1.14556914188884,1.48566903300618,0.506115527444742
"8501",73,1,0,0,0,6,8,6,16,-0.266865538735468,1.48566903300618,2.21425543257074
"866",74,1,0.545246394526,1,4,2,10,1,16,0.611838064417902,-0.799975633157176,-0.632644409305927
"871",75,1,0,0,0,6,2,6,16,-2.90297634819558,1.48566903300618,2.21425543257074
"887",76,1,0,0,0,6,2,6,16,-2.90297634819558,1.48566903300618,2.21425543257074
"9191",79,1,0.0808757371269,1,14,5,8,1,16,-0.266865538735468,0.914257866465344,-0.632644409305927
"9412",81,1,0,0,0,4,10,3,16,0.611838064417902,0.342846699924504,0.506115527444742
"957",82,1,0.328932188102,1,10,6,5,2,16,-1.58492094346552,1.48566903300618,-0.0632644409305927
"9681",83,1,0.192881026422,1,5,3,10,1,16,0.611838064417902,-0.228564466616336,-0.632644409305927
"979",85,1,0.944297216192,1,15,4,9,3,16,0.172486262841217,0.342846699924504,0.506115527444742
"1004",87,1,0,0,0,6,9,1,16,0.172486262841217,1.48566903300618,-0.632644409305927
"1031",89,1,0.447155195812,1,4,3,10,1,16,0.611838064417902,-0.228564466616336,-0.632644409305927
"1036",90,1,0.411768199527,1,10,3,10,1,16,0.611838064417902,-0.228564466616336,-0.632644409305927
"1047",91,1,0.213679117092,1,6,4,9,1,16,0.172486262841217,0.342846699924504,-0.632644409305927
"10541",92,1,0.910852744943,1,12,3,10,1,16,0.611838064417902,-0.228564466616336,-0.632644409305927
"1067",93,1,0,0,0,6,4,3,16,-2.02427274504221,1.48566903300618,0.506115527444742
"10831",94,1,0,0,0,6,2,5,16,-2.90297634819558,1.48566903300618,1.64487546419541
"1099",95,1,0.746138501971,1,13,3,10,1,16,0.611838064417902,-0.228564466616336,-0.632644409305927
"11131",96,1,0.0185446115211,1,9,3,9,1,16,0.172486262841217,-0.228564466616336,-0.632644409305927
"11231",97,1,0.179046807636,1,15,2,10,1,16,0.611838064417902,-0.799975633157176,-0.632644409305927
"1139",98,1,0.142746063415,1,12,2,10,1,16,0.611838064417902,-0.799975633157176,-0.632644409305927
"11521",99,1,0.679480641673,1,13,2,10,1,16,0.611838064417902,-0.799975633157176,-0.632644409305927
"1166",100,1,0.112958290498,1,14,5,6,2,16,-1.14556914188884,0.914257866465344,-0.0632644409305927
"1196",103,1,0.446628177946,1,12,2,10,1,16,0.611838064417902,-0.799975633157176,-0.632644409305927
"1209",104,1,0.663966382795,1,10,3,9,3,16,0.172486262841217,-0.228564466616336,0.506115527444742
"12202",105,1,0.482487578935,1,9,3,9,1,16,0.172486262841217,-0.228564466616336,-0.632644409305927
"1241",108,1,0.69734839024,1,7,6,7,6,16,-0.706217340312153,1.48566903300618,2.21425543257074
"12761",112,1,0.26360996312,1,8,4,8,1,16,-0.266865538735468,0.342846699924504,-0.632644409305927
"1285",113,1,0,0,0,6,5,6,16,-1.58492094346552,1.48566903300618,2.21425543257074
"1301",114,1,0.880119138805,1,13,2,9,3,16,0.172486262841217,-0.799975633157176,0.506115527444742
"13271",116,1,0.0302287749364,1,15,2,10,1,16,0.611838064417902,-0.799975633157176,-0.632644409305927
"1350",118,1,0,0,0,6,7,3,16,-0.706217340312153,1.48566903300618,0.506115527444742
"1366",119,1,0.279775143601,1,2,2,10,6,16,0.611838064417902,-0.799975633157176,2.21425543257074
"1369",120,1,0.366456951771,1,3,2,10,1,16,0.611838064417902,-0.799975633157176,-0.632644409305927
"13731",121,1,0.445894995064,1,13,3,8,2,16,-0.266865538735468,-0.228564466616336,-0.0632644409305927
"1387",122,1,0.492083468183,1,4,2,10,1,16,0.611838064417902,-0.799975633157176,-0.632644409305927
"13921",123,1,0.128683493007,1,15,2,9,1,16,0.172486262841217,-0.799975633157176,-0.632644409305927
"1421",125,1,0.946947665478,1,14,6,5,3,16,-1.58492094346552,1.48566903300618,0.506115527444742
"1436",126,1,0.510529775813,1,4,1,10,1,16,0.611838064417902,-1.37138679969802,-0.632644409305927
"1441",127,1,0.412288049411,1,11,2,9,6,16,0.172486262841217,-0.799975633157176,2.21425543257074
"1464",129,1,0.823052730469,1,8,3,7,6,16,-0.706217340312153,-0.228564466616336,2.21425543257074
"14731",130,1,0.434536463232,1,7,3,10,2,16,0.611838064417902,-0.228564466616336,-0.0632644409305927
"1481",131,1,0.941638574994,1,15,4,9,1,16,0.172486262841217,0.342846699924504,-0.632644409305927
"1497",132,1,0.338003448793,1,7,3,9,1,16,0.172486262841217,-0.228564466616336,-0.632644409305927
"402",2,1,0.398754886235,1,5,6,7,4,18,-0.215487438498555,1.70249426410988,0.236200405069302
"46",3,9,0.207623873139,1,8,4,8,5,18,0.225282322066671,0.0430233207536792,0.837842946283561
"551",4,1,0.768918370944,1,3,5,9,4,18,0.666052082631896,0.872758792431778,0.236200405069302
"73",7,1,0.427367450204,1,3,5,7,5,18,-0.215487438498555,0.872758792431778,0.837842946283561
"771",8,1,0.769861473469,1,3,5,9,1,18,0.666052082631896,0.872758792431778,-1.56872721857348
"817",9,1,0.299588830443,1,8,6,3,3,18,-1.97856648075946,1.70249426410988,-0.365442136144957
"90",10,1,0.878308368265,1,6,5,3,2,18,-1.97856648075946,0.872758792431778,-0.967084677359216
"971",11,1,0.319077568594,1,9,4,9,1,18,0.666052082631896,0.0430233207536792,-1.56872721857348
"1071",12,1,0.318918848759,1,9,6,3,5,18,-1.97856648075946,1.70249426410988,0.837842946283561
"1171",13,1,0.334553939523,1,3,5,8,4,18,0.225282322066671,0.872758792431778,0.236200405069302
"121",14,1,0.616703394102,1,6,5,6,4,18,-0.65625719906378,0.872758792431778,0.236200405069302
"1284",15,1,0.703426844906,1,7,2,10,1,18,1.10682184319712,-1.61644762260252,-1.56872721857348
"1362",16,1,0.0500158378854,1,6,4,6,5,18,-0.65625719906378,0.0430233207536792,0.837842946283561
"1431",17,1,0.933992037433,1,13,4,8,4,18,0.225282322066671,0.0430233207536792,0.236200405069302
"1571",18,1,0.830004314426,1,6,4,6,5,18,-0.65625719906378,0.0430233207536792,0.837842946283561
"1641",19,1,0.851730830385,1,5,3,8,1,18,0.225282322066671,-0.786712150924419,-1.56872721857348
"1702",20,1,0.113138172776,1,3,3,10,5,18,1.10682184319712,-0.786712150924419,0.837842946283561
"1742",21,1,0.301349425106,1,7,4,8,5,18,0.225282322066671,0.0430233207536792,0.837842946283561
"182",22,6,0.0387184044812,1,5,4,8,4,18,0.225282322066671,0.0430233207536792,0.236200405069302
"1881",23,1,0.69427025097,1,8,4,7,4,18,-0.215487438498555,0.0430233207536792,0.236200405069302
"2043",25,1,0.416372437729,1,2,1,10,1,18,1.10682184319712,-2.44618309428062,-1.56872721857348
"207",26,1,0.835407954175,1,14,1,10,1,18,1.10682184319712,-2.44618309428062,-1.56872721857348
"2331",28,1,0.298676106497,1,2,3,10,1,18,1.10682184319712,-0.786712150924419,-1.56872721857348
"2621",32,1,0.28101861896,1,12,6,8,2,18,0.225282322066671,1.70249426410988,-0.967084677359216
"275",33,1,0.86882034014,1,14,2,9,2,18,0.666052082631896,-1.61644762260252,-0.967084677359216
"290",34,10,0.11330508464,1,10,2,10,2,18,1.10682184319712,-1.61644762260252,-0.967084677359216
"3011",35,1,0.554200578132,1,3,5,8,4,18,0.225282322066671,0.872758792431778,0.236200405069302
"317",37,1,0.521357193822,1,8,2,10,1,18,1.10682184319712,-1.61644762260252,-1.56872721857348
"3261",38,1,0.945242366754,1,1,3,10,1,18,1.10682184319712,-0.786712150924419,-1.56872721857348
"328",39,1,0,0,0,6,2,4,18,-2.41933624132468,1.70249426410988,0.236200405069302
"3442",40,1,0.646982003585,1,13,3,10,1,18,1.10682184319712,-0.786712150924419,-1.56872721857348
"358",41,1,0.134590598638,1,15,6,6,4,18,-0.65625719906378,1.70249426410988,0.236200405069302
"374",42,1,0.649877188378,1,9,4,6,4,18,-0.65625719906378,0.0430233207536792,0.236200405069302
"384",43,5,0.779592530569,1,1,1,10,1,18,1.10682184319712,-2.44618309428062,-1.56872721857348
"396",45,1,0.0991766370134,1,6,5,10,5,18,1.10682184319712,0.872758792431778,0.837842946283561
"403",46,1,0.814489373006,1,15,4,10,1,18,1.10682184319712,0.0430233207536792,-1.56872721857348
"4191",47,1,0.347067882889,1,14,5,6,4,18,-0.65625719906378,0.872758792431778,0.236200405069302
"434",48,7,0.0477855692152,1,3,4,8,3,18,0.225282322066671,0.0430233207536792,-0.365442136144957
"438",49,1,0.791532352217,1,7,3,10,2,18,1.10682184319712,-0.786712150924419,-0.967084677359216
"446",50,6,0.14604026638,1,2,4,10,1,18,1.10682184319712,0.0430233207536792,-1.56872721857348
"462",52,1,0.810154446284,1,14,4,8,3,18,0.225282322066671,0.0430233207536792,-0.365442136144957
"4771",53,8,0.431167167146,1,8,4,7,4,18,-0.215487438498555,0.0430233207536792,0.236200405069302
"4861",54,1,0.646627358743,1,10,4,7,5,18,-0.215487438498555,0.0430233207536792,0.837842946283561
"497",55,1,0.483887043432,1,2,1,10,1,18,1.10682184319712,-2.44618309428062,-1.56872721857348
"5001",56,1,0.518510819529,1,12,2,10,1,18,1.10682184319712,-1.61644762260252,-1.56872721857348
"518",58,1,0.610720853903,1,8,3,10,1,18,1.10682184319712,-0.786712150924419,-1.56872721857348
"5271",59,1,0.464644406224,1,8,4,7,4,18,-0.215487438498555,0.0430233207536792,0.236200405069302
"536",60,1,0.726752505056,1,11,4,9,2,18,0.666052082631896,0.0430233207536792,-0.967084677359216
"548",61,1,0.197221755749,1,10,4,8,5,18,0.225282322066671,0.0430233207536792,0.837842946283561
"5591",62,1,0,0,0,2,10,1,18,1.10682184319712,-1.61644762260252,-1.56872721857348
"5751",63,1,0.497222916223,1,10,4,9,4,18,0.666052082631896,0.0430233207536792,0.236200405069302
"599",65,1,0.229414900998,1,7,3,10,3,18,1.10682184319712,-0.786712150924419,-0.365442136144957
"6071",66,7,0.878133264487,1,6,4,8,4,18,0.225282322066671,0.0430233207536792,0.236200405069302
"6141",67,3,0.159250187338,1,2,4,10,6,18,1.10682184319712,0.0430233207536792,1.43948548749782
"6232",69,1,0.0988882108359,1,12,5,9,5,18,0.666052082631896,0.872758792431778,0.837842946283561
"636",70,1,0.125223060953,1,8,3,10,1,18,1.10682184319712,-0.786712150924419,-1.56872721857348
"645",71,1,0.458430783823,1,15,3,10,6,18,1.10682184319712,-0.786712150924419,1.43948548749782
"669",73,1,0.208050539135,1,7,3,10,1,18,1.10682184319712,-0.786712150924419,-1.56872721857348
"6771",74,1,0.796976269106,1,14,1,10,1,18,1.10682184319712,-2.44618309428062,-1.56872721857348
"692",75,1,0.949910775525,1,2,4,10,1,18,1.10682184319712,0.0430233207536792,-1.56872721857348
"695",76,1,0.331693229149,1,6,3,10,1,18,1.10682184319712,-0.786712150924419,-1.56872721857348
"7021",77,1,0,0,0,6,4,6,18,-1.53779672019423,1.70249426410988,1.43948548749782
"718",78,1,0.694214955089,1,11,6,6,5,18,-0.65625719906378,1.70249426410988,0.837842946283561
"730",79,1,0.662984709605,1,5,4,8,4,18,0.225282322066671,0.0430233207536792,0.236200405069302
"736",80,1,0,0,0,6,4,5,18,-1.53779672019423,1.70249426410988,0.837842946283561
"757",82,6,0.929114391562,1,6,5,9,5,18,0.666052082631896,0.872758792431778,0.837842946283561
"764",83,1,0.660001802258,1,12,4,8,4,18,0.225282322066671,0.0430233207536792,0.236200405069302
"796",86,1,0,0,0,6,3,6,18,-1.97856648075946,1.70249426410988,1.43948548749782
"8121",87,1,0.862442195299,1,10,2,10,1,18,1.10682184319712,-1.61644762260252,-1.56872721857348
"8411",90,1,0.346337430761,1,12,3,10,1,18,1.10682184319712,-0.786712150924419,-1.56872721857348
"8641",92,1,0.230658035027,1,15,4,6,5,18,-0.65625719906378,0.0430233207536792,0.837842946283561
"8802",93,1,0.680121323327,1,8,1,10,1,18,1.10682184319712,-2.44618309428062,-1.56872721857348
"8951",95,1,0.496445701458,1,9,5,7,4,18,-0.215487438498555,0.872758792431778,0.236200405069302
"905",96,1,0.170042789541,1,7,3,10,6,18,1.10682184319712,-0.786712150924419,1.43948548749782
"9131",97,8,0.463144248701,1,6,6,7,5,18,-0.215487438498555,1.70249426410988,0.837842946283561
"920",98,1,0.876661778777,1,1,1,10,1,18,1.10682184319712,-2.44618309428062,-1.56872721857348
"922",99,6,0.197289339616,1,6,4,9,4,18,0.666052082631896,0.0430233207536792,0.236200405069302
"9291",100,1,0.642297893413,1,7,5,8,5,18,0.225282322066671,0.872758792431778,0.837842946283561
"9371",101,1,0.21188677859,1,11,2,10,1,18,1.10682184319712,-1.61644762260252,-1.56872721857348
"949",102,1,0.107691525249,1,10,4,7,5,18,-0.215487438498555,0.0430233207536792,0.837842946283561
"9601",103,1,0.260262170923,1,4,4,9,4,18,0.666052082631896,0.0430233207536792,0.236200405069302
"970",105,1,0.73143320193,1,7,5,3,5,18,-1.97856648075946,0.872758792431778,0.837842946283561
"9782",106,1,0.533600460389,1,6,3,8,4,18,0.225282322066671,-0.786712150924419,0.236200405069302
"9851",107,1,0.0494365959894,1,5,5,9,2,18,0.666052082631896,0.872758792431778,-0.967084677359216
"9911",108,9,0.0492082444252,1,4,3,10,4,18,1.10682184319712,-0.786712150924419,0.236200405069302
"9962",109,1,0.112129875808,1,6,4,7,5,18,-0.215487438498555,0.0430233207536792,0.837842946283561
"10031",110,1,0.214611297008,1,4,4,8,4,18,0.225282322066671,0.0430233207536792,0.236200405069302
"10132",112,1,0.780205222894,1,5,4,7,5,18,-0.215487438498555,0.0430233207536792,0.837842946283561
"1025",114,1,0.646983027575,1,6,4,8,4,18,0.225282322066671,0.0430233207536792,0.236200405069302
"1032",115,1,0.119482525857,1,5,4,7,6,18,-0.215487438498555,0.0430233207536792,1.43948548749782
"10381",116,9,0.507983433083,1,2,4,7,5,18,-0.215487438498555,0.0430233207536792,0.837842946283561
"1041",117,1,0.576718644821,1,2,5,8,5,18,0.225282322066671,0.872758792431778,0.837842946283561
"1044",118,1,0.933708048542,1,3,4,7,5,18,-0.215487438498555,0.0430233207536792,0.837842946283561
"10481",119,1,0.530232529505,1,3,4,8,3,18,0.225282322066671,0.0430233207536792,-0.365442136144957
"10522",120,10,0.456489282893,1,3,5,8,6,18,0.225282322066671,0.872758792431778,1.43948548749782
"1056",121,1,0.179595670779,1,7,5,10,5,18,1.10682184319712,0.872758792431778,0.837842946283561
"1064",122,1,0.379038479063,1,3,4,9,5,18,0.666052082631896,0.0430233207536792,0.837842946283561
"10681",123,1,0.876629352104,1,7,5,8,1,18,0.225282322066671,0.872758792431778,-1.56872721857348
"10762",124,1,0.681366505334,1,6,4,7,3,18,-0.215487438498555,0.0430233207536792,-0.365442136144957
"10832",125,1,0.795602745959,1,3,4,7,5,18,-0.215487438498555,0.0430233207536792,0.837842946283561
"10871",126,1,0.0772978866007,1,4,5,6,6,18,-0.65625719906378,0.872758792431778,1.43948548749782
"10921",127,10,0.428802754614,1,2,4,9,6,18,0.666052082631896,0.0430233207536792,1.43948548749782
"1095",128,1,0.132399242022,1,4,3,10,1,18,1.10682184319712,-0.786712150924419,-1.56872721857348
"1100",129,1,0.0478937717853,1,7,4,7,5,18,-0.215487438498555,0.0430233207536792,0.837842946283561
"11083",130,2,0.329047899926,1,2,3,10,5,18,1.10682184319712,-0.786712150924419,0.837842946283561
"11111",131,1,0.470504066674,1,3,4,8,6,18,0.225282322066671,0.0430233207536792,1.43948548749782
"1115",132,5,0.000367615371943,1,4,3,9,2,18,0.666052082631896,-0.786712150924419,-0.967084677359216
"1120",133,8,0.0732199834893,1,3,3,9,5,18,0.666052082631896,-0.786712150924419,0.837842946283561
"11242",134,1,0.782096889336,1,4,5,8,2,18,0.225282322066671,0.872758792431778,-0.967084677359216
"483",0,1,0.533804918756,1,11,2,9,2,19,0.91247403051339,-1.38580333585552,-0.77971169826795
"602",1,1,0.468228742131,1,13,6,7,1,19,0.244810105747495,1.41694498385227,-1.33371737861623
"746",2,1,0,0,0,4,3,6,19,-1.0905177437843,0.0155708239983765,1.43631102312517
"1001",4,1,0.185809634509,1,10,2,10,1,19,1.24630599289634,-1.38580333585552,-1.33371737861623
"111",5,1,0.241190200206,1,11,4,8,1,19,0.578642068130442,0.0155708239983765,-1.33371737861623
"1232",6,1,0.154803644866,1,4,3,9,1,19,0.91247403051339,-0.68511625592857,-1.33371737861623
"1286",7,1,0.702002121718,1,7,3,8,2,19,0.578642068130442,-0.68511625592857,-0.77971169826795
"144",9,1,0,0,0,6,2,6,19,-1.42434970616724,1.41694498385227,1.43631102312517
"1601",10,1,0.846686955425,1,10,5,7,5,19,0.244810105747495,0.716257903925323,0.882305342776891
"171",11,1,0.50473462732,1,14,4,8,1,19,0.578642068130442,0.0155708239983765,-1.33371737861623
"1971",13,1,0.490865251282,1,8,3,8,1,19,0.578642068130442,-0.68511625592857,-1.33371737861623
"206",14,1,0.664414552739,1,12,5,5,5,19,-0.4228538190184,0.716257903925323,0.882305342776891
"229",16,1,0.402349461918,1,6,3,9,6,19,0.91247403051339,-0.68511625592857,1.43631102312517
"2361",17,5,0.555716437171,1,5,5,7,1,19,0.244810105747495,0.716257903925323,-1.33371737861623
"2551",19,1,0.535110516823,1,9,4,8,2,19,0.578642068130442,0.0155708239983765,-0.77971169826795
"265",20,1,0.487661160296,1,7,5,7,2,19,0.244810105747495,0.716257903925323,-0.77971169826795
"273",21,1,0.244503517752,1,4,5,8,4,19,0.578642068130442,0.716257903925323,0.32829966242861
"278",22,6,0.768427193048,1,3,1,9,6,19,0.91247403051339,-2.08649041578246,1.43631102312517
"2821",23,1,0.0341063155793,1,14,4,9,3,19,0.91247403051339,0.0155708239983765,-0.22570601791967
"303",25,10,0.383133448893,1,9,1,9,1,19,0.91247403051339,-2.08649041578246,-1.33371737861623
"3211",27,1,0.26446568442,1,8,6,7,6,19,0.244810105747495,1.41694498385227,1.43631102312517
"351",30,1,0.198142671608,1,11,6,9,3,19,0.91247403051339,1.41694498385227,-0.22570601791967
"363",31,1,0.859698903398,1,12,5,9,2,19,0.91247403051339,0.716257903925323,-0.77971169826795
"376",32,1,0.86659792217,1,2,4,9,1,19,0.91247403051339,0.0155708239983765,-1.33371737861623
"379",33,1,0.195353641291,1,4,2,8,3,19,0.578642068130442,-1.38580333585552,-0.22570601791967
"3841",34,10,0.0513067585416,1,6,4,8,4,19,0.578642068130442,0.0155708239983765,0.32829966242861
"391",35,1,0.935851277201,1,10,5,8,6,19,0.578642068130442,0.716257903925323,1.43631102312517
"4021",36,1,0,0,0,1,10,6,19,1.24630599289634,-2.08649041578246,1.43631102312517
"4181",37,9,0.416513408301,1,2,3,9,2,19,0.91247403051339,-0.68511625592857,-0.77971169826795
"429",39,1,0.234579607728,1,2,6,8,2,19,0.578642068130442,1.41694498385227,-0.77971169826795
"444",41,1,0.444901375216,1,15,5,6,3,19,-0.0890218566354527,0.716257903925323,-0.22570601791967
"460",42,1,0.486181482556,1,14,4,8,3,19,0.578642068130442,0.0155708239983765,-0.22570601791967
"490",45,1,0.686195682036,1,9,3,9,2,19,0.91247403051339,-0.68511625592857,-0.77971169826795
"5272",49,1,0,0,0,6,6,5,19,-0.0890218566354527,1.41694498385227,0.882305342776891
"5432",50,1,0.169380603824,1,12,4,8,1,19,0.578642068130442,0.0155708239983765,-1.33371737861623
"5561",51,1,0.172465228476,1,8,3,8,5,19,0.578642068130442,-0.68511625592857,0.882305342776891
"565",52,1,0.216054793447,1,14,3,9,3,19,0.91247403051339,-0.68511625592857,-0.22570601791967
"580",53,1,0,0,0,6,0,3,19,-2.09201363093314,1.41694498385227,-0.22570601791967
"596",54,1,0.251108648954,1,3,3,9,1,19,0.91247403051339,-0.68511625592857,-1.33371737861623
"6061",56,1,0.547692385502,1,8,6,8,3,19,0.578642068130442,1.41694498385227,-0.22570601791967
"615",57,1,0.748977366951,1,11,4,7,2,19,0.244810105747495,0.0155708239983765,-0.77971169826795
"627",58,1,0.64461759117,1,11,4,8,3,19,0.578642068130442,0.0155708239983765,-0.22570601791967
"639",59,1,0.853088993696,1,2,5,4,6,19,-0.756685781401348,0.716257903925323,1.43631102312517
"642",60,7,0.617387425038,1,7,6,4,5,19,-0.756685781401348,1.41694498385227,0.882305342776891
"6502",61,1,0.0836234661983,1,5,4,7,6,19,0.244810105747495,0.0155708239983765,1.43631102312517
"656",62,1,0.401563372579,1,14,2,10,1,19,1.24630599289634,-1.38580333585552,-1.33371737861623
"6711",63,1,0.257808329305,1,9,2,9,1,19,0.91247403051339,-1.38580333585552,-1.33371737861623
"689",65,1,0.934413583484,1,9,4,8,2,19,0.578642068130442,0.0155708239983765,-0.77971169826795
"7031",67,1,0.932698727353,1,2,4,8,4,19,0.578642068130442,0.0155708239983765,0.32829966242861
"711",69,1,0.413251290563,1,5,5,7,5,19,0.244810105747495,0.716257903925323,0.882305342776891
